subject_id,session_id,window_start,window_end,eda_eda_mean,eda_eda_std,eda_eda_min,eda_eda_max,eda_eda_median,eda_eda_iqr,eda_eda_slope,eda_eda_energy,motion_acc_x_mean,motion_acc_x_std,motion_acc_x_min,motion_acc_x_max,motion_acc_x_median,motion_acc_x_iqr,motion_acc_x_slope,motion_acc_x_energy,motion_acc_y_mean,motion_acc_y_std,motion_acc_y_min,motion_acc_y_max,motion_acc_y_median,motion_acc_y_iqr,motion_acc_y_slope,motion_acc_y_energy,motion_acc_z_mean,motion_acc_z_std,motion_acc_z_min,motion_acc_z_max,motion_acc_z_median,motion_acc_z_iqr,motion_acc_z_slope,motion_acc_z_energy,ppg_heart_rate_mean,ppg_heart_rate_std,ppg_heart_rate_min,ppg_heart_rate_max,ppg_heart_rate_median,ppg_heart_rate_iqr,ppg_heart_rate_slope,ppg_heart_rate_energy,ppg_spo2_mean,ppg_spo2_std,ppg_spo2_min,ppg_spo2_max,ppg_spo2_median,ppg_spo2_iqr,ppg_spo2_slope,ppg_spo2_energy,temp_temperature_mean,temp_temperature_std,temp_temperature_min,temp_temperature_max,temp_temperature_median,temp_temperature_iqr,temp_temperature_slope,temp_temperature_energy,target
noneeg_S01,noneeg,2026-01-01 00:00:00+00:00,2026-01-01 00:00:30+00:00,0.08281218451477483,0.000838250759721208,0.07901754814282137,0.08501089510774594,0.0830393993955997,0.0,1.417156962329242e-05,0.0068585605684452905,0.732150048065904,0.019975862551413835,0.6600141911062316,0.7700250251769831,0.7300349436926037,0.029979857783715258,-0.000511864971948846,0.5364427279675784,-0.8868669698187099,0.011131568932178997,-0.919962157049822,-0.8699899288933598,-0.8899954222250996,0.010002746665869977,-0.000276110584370412,0.7866569339823123,-0.0952654728842985,0.007738564231195091,-0.11003051850946928,-0.06002838221380901,-0.09002105777153294,0.00998321481978759,0.00021662415751635828,0.009135395700229346,83.36703899267312,2.4150581146341237,81.00041200006333,89.00076296294061,82.00010681497086,3.000015259261602,-0.22714525347439554,6955.895696102938,96.56664937313936,0.4955205019034663,96.00000000029299,96.99996948178656,96.99996948178656,0.9999694814935793,0.009565892703941035,9325.363311722638,30.256300431809212,0.1539908553421921,30.10004272588571,30.60004882958715,30.400057985140172,0.3000152592544616,0.005709367662917047,915.4674290034272,non_stress
noneeg_S01,noneeg,2026-01-01 00:00:15+00:00,2026-01-01 00:00:45+00:00,0.08323654896681432,0.0005914487136438703,0.0830393993955997,0.08501089510774594,0.0830393993955997,0.0,6.7010519986220574e-06,0.006928672895485752,0.7231522797319185,0.010679715385515516,0.6600141911062316,0.7600148014763188,0.7200247199919394,0.010010223700664289,-8.032458817065438e-05,0.5230632760021865,-0.8919954527436126,0.005338257857394539,-0.9099594103839521,-0.8699899288933598,-0.8899954222250996,0.0,-5.443686546673429e-05,0.7956843847122343,-0.08989572969755606,0.0037041078097444793,-0.10000427259132053,-0.06002838221380901,-0.09002105777153294,0.0,-2.77709958867817e-05,0.008094962632522277,81.43370616797715,2.60360638965845,75.00038148154012,85.00012207423246,82.00010681497086,2.000320444354074,-0.18042747503710677,6638.227266484711,96.56664937313936,0.6155207250741453,95.0000305187994,96.99996948178656,96.99996948178656,0.9999694814935793,-0.03937588392088384,9325.496636917827,30.4725539414376,0.1182920487893015,30.10004272588571,30.80003967403412,30.400057985140172,0.199990844446976,0.004055185792260948,928.5905367226309,non_stress
noneeg_S01,noneeg,2026-01-01 00:00:30+00:00,2026-01-01 00:01:00+00:00,0.08353276619756429,0.0009106943215848976,0.0830393993955997,0.08702182073413511,0.0830393993955997,0.0,1.408006560289717e-05,0.006978552392764309,0.7198995921956811,0.006230057561357099,0.7100144962912752,0.7300349436926037,0.7200247199919394,0.0,-6.581968467032495e-05,0.5182942364607258,-0.8937464522248011,0.004842558906655773,-0.8999981688909696,-0.8899954222250996,-0.8899954222250996,0.010002746665869977,-1.7116748865651205e-05,0.7988061712411827,-0.09039542832727496,0.001896646611039968,-0.10000427259132053,-0.09002105777153294,-0.09002105777153294,0.0,-6.201481310932448e-06,0.008174930730838675,76.20035655809347,5.312855022477675,70.00004577792444,85.00012207423246,74.50053407408635,9.74981688896547,-0.5899858722059252,5834.720768070444,96.4333201089402,0.6155207250741455,95.0000305187994,96.99996948178656,96.49998474103978,0.9999694814935793,-0.0033369393153322947,9299.764092996327,30.65504631181006,0.13406473931281113,30.400057985140172,30.80003967403412,30.60004882958715,0.19999084444697246,0.004973987012616966,939.7498377335469,non_stress
noneeg_S01,noneeg,2026-01-01 00:00:45+00:00,2026-01-01 00:01:15+00:00,0.08424940488892946,0.0011924468198544805,0.0830393993955997,0.08702182073413511,0.08501089510774594,0.0019714957121462345,2.6214977560125618e-05,0.007099384153556952,0.5245204779193221,0.2811047732814532,0.06001052888570787,0.7300349436926037,0.7100144962912752,0.6000036622205237,-0.009880106586850016,0.35414162531833127,-0.9437451399289788,0.07117380139496739,-1.1199755851943334,-0.8899954222250996,-0.8999981688909696,0.14999969481516162,-0.0024863578471121276,0.8957205991445779,-0.08614449369792251,0.01833941314558876,-0.10000427259132053,0.0,-0.09002105777153294,0.0,0.00013445099970008597,0.0077572078689960074,71.10042369880264,2.181005608372652,66.00033570375531,74.00068666663259,71.00067140737099,3.000015259261602,-0.13859238314387648,5060.027035613008,96.86664021758745,0.5617261746446937,96.00000000029299,97.99993896328014,96.99996948178656,0.0,0.03470416887941888,9383.461523338807,30.825038529589982,0.11564504084832848,30.60004882958715,31.000030518481097,30.80003967403412,0.0,0.004045759464550953,950.1963741261803,non_stress
noneeg_S01,noneeg,2026-01-01 00:01:00+00:00,2026-01-01 00:01:30+00:00,0.08554369182395347,0.001330021824477504,0.0830393993955997,0.08702182073413511,0.08501089510774594,0.0020109256263891734,2.5631754965487467e-05,0.0073194921689251095,0.23215144238081678,0.22677500489651764,0.06001052888570787,0.7300349436926037,0.1400415051727442,0.020020447401328453,-0.006233539304292657,0.10532119504530923,-1.0191200903365298,0.05734086128662157,-1.1199755851943334,-0.8899954222250996,-1.0399951170402613,0.010002746665869866,-0.0015969888747397953,1.0418937329006281,-0.0906396298104745,0.02093776399213303,-0.11003051850946928,0.0,-0.10000427259132053,0.00998321481978759,-0.00042451399059040105,0.008653932453170124,69.7004165778139,2.410491389323195,66.00033570375531,74.00068666663259,69.00035096301691,3.000015259261602,-0.18354648028442816,4863.958539858793,96.5999816891891,0.6633047143840882,96.00000000029299,97.99993896328014,96.49998474103978,0.9999694814935793,-0.05873013194979203,9331.9964354958,30.96503212070287,0.11302137145191779,30.80003967403412,31.20002136292807,31.000030518481097,0.199990844446976,0.003947311088241017,958.8459880665656,non_stress
noneeg_S01,noneeg,2026-01-01 00:01:15+00:00,2026-01-01 00:01:45+00:00,0.0864446653644043,0.0010118257594135243,0.0830393993955997,0.08702182073413511,0.08702182073413511,0.0020109256263891734,-3.341745310485108e-06,0.007473703961331254,0.14114733001175792,0.013029027382387991,0.08003097628703632,0.16001113925579516,0.1400415051727442,0.009959410382386735,0.0004028349087704918,0.020092324323979116,-1.0453715933731664,0.005232055664492243,-1.0499978637061311,-1.0299923703743914,-1.0499978637061311,0.010002746665869866,-1.348237068184626e-05,1.0928291426380288,-0.10251459929196431,0.008145086025286387,-0.11003051850946928,-0.06002838221380901,-0.10000427259132053,0.010026245918148755,-0.00018351916143891236,0.010575585494351326,68.86705832102923,1.3598027746325536,67.00003051866284,72.00036622227852,69.00035096301691,1.7494659260881775,-0.018686697219393644,4744.520785377941,95.56667989164579,0.4955205019034663,95.0000305187994,96.00000000029299,96.00000000029299,0.9999694814935793,-0.03759618295270819,9133.235846080097,31.115025254038095,0.09886407368289094,31.000030518481097,31.20002136292807,31.20002136292807,0.19999084444697246,0.0035300774934031234,968.1545706644941,non_stress
noneeg_S01,noneeg,2026-01-01 00:01:30+00:00,2026-01-01 00:02:00+00:00,0.08644417249047627,0.0009623262155948745,0.0830393993955997,0.08702182073413511,0.08702182073413511,0.0020109256263891734,-4.507728358245627e-06,0.007473521029308433,0.15138367297875696,0.006065510338714951,0.1400415051727442,0.16001113925579516,0.15000091555513093,0.010010223700664234,0.0001198025819430421,0.022953806860208283,-1.0466219367064,0.004729868860049592,-1.0499978637061311,-1.0399951170402613,-1.0499978637061311,0.010002746665869866,-3.2474927642358064e-05,1.0954398500544886,-0.10777353740042679,0.0052462387625848384,-0.12001373332925687,-0.09002105777153294,-0.11003051850946928,0.002506561479537192,-0.00010546956504084001,0.011642658384955238,71.40036317042619,3.2516700671427743,68.00065614810939,77.00070192589419,70.00004577792444,5.499950407434696,0.333697944088612,5108.585219094307,95.56667989164573,0.49552050190346636,95.0000305187994,96.00000000029299,96.00000000029299,0.9999694814935793,0.049164239245845086,9133.235846080097,31.21502067626158,0.06909821149892058,31.000030518481097,31.600003051822018,31.20002136292807,0.0,0.0012470127665941794,974.3822903822711,non_stress
noneeg_S01,noneeg,2026-01-01 00:01:45+00:00,2026-01-01 00:02:15+00:00,0.08656936246819755,0.0008397270029183459,0.08501089510774594,0.08702182073413511,0.08702182073413511,0.0,1.2538823643214418e-05,0.007494959659589601,0.15463254951612354,0.005905505071724437,0.1400415051727442,0.17002136295645937,0.15000091555513093,0.010010223700664234,6.17502120520707e-05,0.023946100360008566,-1.0473721427063405,0.0044011374901745245,-1.0499978637061311,-1.0399951170402613,-1.0499978637061311,0.010002746665869866,-1.043418252769434e-05,1.0970077753284777,-0.10977824869532701,0.003866600664165021,-0.12001373332925687,-0.09002105777153294,-0.11003051850946928,0.0,-6.565117292161046e-06,0.01206621448730919,73.16695608403234,3.045065997704732,69.00035096301691,77.00070192589419,73.50037385190932,6.000030518523204,-0.0798618166703039,5362.675889533095,96.00000000029296,2.842170943040401e-14,96.00000000029299,96.00000000029299,96.00000000029299,0.0,-1.489473013244151e-15,9216.000000056254,31.307516441818326,0.10460759084358875,31.20002136292807,31.600003051822018,31.400012207375045,0.199990844446976,0.003494917359006802,980.1715285027865,non_stress
noneeg_S01,noneeg,2026-01-01 00:02:00+00:00,2026-01-01 00:02:30+00:00,0.08692127445281565,0.0004382710794203318,0.08501089510774594,0.08702182073413511,0.08702182073413511,0.0,4.949535648637772e-06,0.00755550003404076,0.15500729773841998,0.005703367602522451,0.1400415051727442,0.17002136295645937,0.16001113925579516,0.010010223700664234,-1.1511015185972644e-05,0.024059790754176684,-1.0466219367064,0.004729868860049593,-1.0499978637061311,-1.0399951170402613,-1.0499978637061311,0.010002746665869866,-4.5722822312318616e-06,1.0954398500544886,-0.10965292062135017,0.0033368041680481592,-0.12001373332925687,-0.10000427259132053,-0.11003051850946928,0.0,-1.2985990630602189e-05,0.012034897262848024,71.13365377784565,2.604217858704148,69.00035096301691,76.00007629644765,70.00004577792444,2.7500915555347234,-0.19843640674232285,5066.778650442009,95.90000305214363,0.29999084444807383,95.0000305187994,96.00000000029299,96.00000000029299,0.0,-0.018019472302779792,9196.90057990791,31.41251163515298,0.07964401551842346,31.20002136292807,31.600003051822018,31.400012207375045,0.0,0.0020322557681146563,986.7522303978294,non_stress
noneeg_S01,noneeg,2026-01-01 00:02:15+00:00,2026-01-01 00:02:45+00:00,0.08702182073413511,0.0,0.08702182073413511,0.08702182073413511,0.08702182073413511,0.0,1.547010471211173e-19,0.0075727972838839485,0.15438102359065003,0.005210238682492785,0.1400415051727442,0.16001113925579516,0.15000091555513093,0.010010223700664234,3.3875545518321086e-06,0.023860647032025378,-1.0459967650397832,0.004900325071541374,-1.0499978637061311,-1.0399951170402613,-1.0499978637061311,0.010002746665869866,-8.91008845061363e-06,1.0941332456594979,-0.11015315713979859,0.003352652123399823,-0.12001373332925687,-0.10000427259132053,-0.11003051850946928,0.0,-1.6750455212970844e-05,0.012144958304125694,70.03371023708566,1.016059149524489,68.00065614810939,72.00036622227852,70.00004577792444,2.000320444354074,0.017576139183180774,4905.752945767411,95.80000610399424,0.3999877925974317,95.0000305187994,96.00000000029299,96.00000000029299,0.0,-2.366514517296832e-15,9177.801159759567,31.512507057376467,0.09921113229309225,31.400012207375045,31.600003051822018,31.600003051822018,0.19999084444697246,0.003255828445110696,993.0479438899725,non_stress
noneeg_S01,noneeg,2026-01-01 00:02:30+00:00,2026-01-01 00:03:00+00:00,0.08702182073413511,0.0,0.08702182073413511,0.08702182073413511,0.08702182073413511,0.0,1.547010471211173e-19,0.0075727972838839485,0.15400500503539663,0.0049039880555484215,0.15000091555513093,0.16001113925579516,0.15000091555513093,0.010010223700664234,6.5702359029213e-06,0.023741590674801506,-1.0466219367064002,0.004729868860049593,-1.0499978637061311,-1.0399951170402613,-1.0499978637061311,0.010002746665869866,-1.8640842942731435e-05,1.0954398500544886,-0.11065393154697649,0.00288838529894437,-0.12001373332925687,-0.10000427259132053,-0.11003051850946928,0.0,-6.9121097402669564e-06,0.012252635336438118,69.66703136301437,1.1642300088776014,68.00065614810939,72.00036622227852,70.00004577792444,0.999694814907528,-0.06141325887691192,4854.8506904487995,95.63334452374536,0.48187970312905837,95.0000305187994,96.00000000029299,96.00000000029299,0.9999694814935793,-0.021133948997084272,9145.96879284566,31.590003509599672,0.04358699402888578,31.400012207375045,31.600003051822018,31.600003051822018,0.0,0.0006000662936993562,997.9302215625679,non_stress
noneeg_S01,noneeg,2026-01-01 00:02:45+00:00,2026-01-01 00:03:15+00:00,0.08702182073413511,0.0,0.08702182073413511,0.08702182073413511,0.08702182073413511,0.0,1.547010471211173e-19,0.0075727972838839485,0.1537553846093585,0.0050963820003632745,0.1400415051727442,0.16001113925579516,0.15000091555513093,0.010010223700664234,-1.400165392292018e-06,0.02366669140586538,-1.0467469710397235,0.004685034968013268,-1.0499978637061311,-1.0399951170402613,-1.0499978637061311,0.010002746665869866,2.6495789339975272e-05,1.0957011709334867,-0.11115309228796585,0.0035290891840849166,-0.12001373332925687,-0.10000427259132053,-0.11003051850946928,0.0,-1.2512910810364494e-06,0.012367464395646283,70.56694285933894,2.1397989896885288,68.00065614810939,77.00070192589419,70.00004577792444,3.000015259261602,0.22624135904439746,4984.27216422948,95.3000213632475,0.458243584159007,95.0000305187994,96.00000000029299,95.0000305187994,0.9999694814935793,-0.02335857520730368,9082.304059017848,31.62500770589469,0.07332487702593814,31.600003051822018,31.999984740715966,31.600003051822018,0.0,0.0013973596352796576,1000.1464889354895,non_stress
noneeg_S01,noneeg,2026-01-01 00:03:00+00:00,2026-01-01 00:03:30+00:00,0.08702182073413511,0.0,0.08702182073413511,0.08702182073413511,0.08702182073413511,0.0,1.547010471211173e-19,0.0075727972838839485,0.15363152714605713,0.005755451756628804,0.1400415051727442,0.17002136295645937,0.15000091555513093,0.010010223700664234,1.2959421070299355e-06,0.02363577135815257,-1.0464969023730766,0.004771006083207957,-1.0499978637061311,-1.0399951170402613,-1.0499978637061311,0.010002746665869866,-1.4303036723347569e-05,1.0951785291754905,-0.11177704321420259,0.004110149625837984,-0.12001373332925687,-0.10000427259132053,-0.11003051850946928,0.0,-2.3855730807352724e-07,0.012511000719656492,73.86699067167802,2.5915731473107892,70.00004577792444,78.00039674080172,73.50037385190932,3.99971007416913,0.18510536167480282,5463.048562267631,95.56667989164573,0.49552050190346636,95.0000305187994,96.00000000029299,96.00000000029299,0.9999694814935793,0.049164239245845086,9133.235846080097,31.71502967922143,0.10382406131973877,31.600003051822018,31.999984740715966,31.800051881436996,0.20004882961497827,0.0030950229061201314,1005.853886989605,non_stress
noneeg_S01,noneeg,2026-01-01 00:03:15+00:00,2026-01-01 00:03:45+00:00,0.08702182073413511,0.0,0.08702182073413511,0.08702182073413511,0.08702182073413511,0.0,1.547010471211173e-19,0.0075727972838839485,0.15663395908977792,0.0070653490898836815,0.1400415051727442,0.17002136295645937,0.16001113925579516,0.010010223700664234,0.00017159738578687982,0.024584116297900145,-1.046872005373047,0.004636397168139081,-1.0499978637061311,-1.0399951170402613,-1.0499978637061311,0.010002746665869866,-9.261802468395717e-06,1.095962491812485,-0.11252632221441616,0.004322858822686669,-0.12001373332925687,-0.11003051850946928,-0.11003051850946928,0.0024958037049468973,-3.627281521488678e-05,0.012680860299503494,73.53382112101146,2.4863583100722577,71.00067140737099,78.00039674080172,72.50021362973229,4.749481185349779,-0.2736294481964428,5413.404826302974,96.00000000029296,2.842170943040401e-14,96.00000000029299,96.00000000029299,96.00000000029299,0.0,-1.489473013244151e-15,9216.000000056254,31.79004943995625,0.04359963160326386,31.600003051822018,31.800051881436996,31.800051881436996,0.0,0.0005721040134323575,1010.6091443227384,non_stress
noneeg_S01,noneeg,2026-01-01 00:03:30+00:00,2026-01-01 00:04:00+00:00,0.08717165440825822,0.00065310984384206,0.08702182073413511,0.0900184942165974,0.08702182073413511,0.0,8.780688825780934e-06,0.00759932388474093,0.18851487014354945,0.03963291260694663,0.15000091555513093,0.34004272591291873,0.17002136295645937,0.05000030518504364,0.0011345210828161598,0.037108624026949186,-1.0461212805584457,0.00558902099099702,-1.0599591051991137,-1.0299923703743914,-1.0499978637061311,0.010002746665869866,2.2635205045147188e-05,1.0944009707928795,-0.10851905117953378,0.010622395447943819,-0.12001373332925687,-0.05000213629566026,-0.11003051850946928,0.010026245918148755,0.00017160087867552226,0.011889219753958766,72.10039775807186,0.9432351995784399,71.00067140737099,74.00068666663259,72.00036622227852,1.999389629815056,0.07674011941207519,5199.357049513899,96.00000000029296,2.842170943040401e-14,96.00000000029299,96.00000000029299,96.00000000029299,0.0,-1.489473013244151e-15,9216.000000056254,31.82004516736489,0.059979857783691054,31.800051881436996,31.999984740715966,31.800051881436996,0.0,0.001134171400504336,1012.5188720364816,non_stress
noneeg_S01,noneeg,2026-01-01 00:03:45+00:00,2026-01-01 00:04:15+00:00,0.0873466246527112,0.0009181804746141882,0.08702182073413511,0.0900184942165974,0.08702182073413511,0.0,4.461052065013572e-06,0.00763027589360558,0.22490165219557684,0.02811347740269739,0.16001113925579516,0.34004272591291873,0.23003189184216724,0.02002044740132844,0.0002856843627661489,0.05137112077197218,-1.0443707998919183,0.005666640982123056,-1.0599591051991137,-1.0299923703743914,-1.0399951170402613,0.010002746665869866,2.5175523995190956e-05,1.0907424784869053,-0.10576828821679704,0.009724670979261064,-0.12001373332925687,-0.05000213629566026,-0.11003051850946928,0.010026245918148755,-5.67373000613732e-05,0.011281500017966328,74.5669632050211,2.1554022139652997,71.00067140737099,80.0007171851558,74.00068666663259,3.000015259261602,0.18798664165164855,5564.8777603229355,96.00000000029296,2.842170943040401e-14,96.00000000029299,96.00000000029299,96.00000000029299,0.0,-1.489473013244151e-15,9216.000000056254,31.905016632558453,0.09984139340588631,31.800051881436996,31.999984740715966,31.999984740715966,0.1999328592789702,0.0031260013394065356,1017.940054627669,non_stress
noneeg_S01,noneeg,2026-01-01 00:04:00+00:00,2026-01-01 00:04:30+00:00,0.08755905331569495,0.0011277123497427468,0.08702182073413511,0.0900184942165974,0.08702182073413511,0.0,4.909791478163244e-06,0.007667859552684476,0.23453522217450917,0.006503620282979783,0.2100114444408388,0.25000152592521824,0.23003189184216724,0.010010223700664234,3.748345787328088e-05,0.05504906751723158,-1.0426208380400521,0.0044011374901745245,-1.0499978637061311,-1.0399951170402613,-1.0399951170402613,0.010002746665869866,1.8640842942726804e-05,1.087077581926548,-0.10739862895595524,0.004945209590645811,-0.12001373332925687,-0.09002105777153294,-0.11003051850946928,0.010026245918148755,2.995281177415071e-05,0.01155892059951436,75.7004470963371,1.5523574343788615,74.00068666663259,80.0007171851558,76.00007629644765,2.7498588518999725,-0.10210486736981367,5732.967504189404,96.00000000029296,2.842170943040401e-14,96.00000000029299,96.00000000029299,96.00000000029299,0.0,-1.489473013244151e-15,9216.000000056254,31.987489661825627,0.05780841931126288,31.800051881436996,32.19997558516294,31.999984740715966,0.0,0.000972512258946594,1023.202836678745,non_stress
noneeg_S01,noneeg,2026-01-01 00:04:15+00:00,2026-01-01 00:04:45+00:00,0.0876837504194882,0.0012331495881233907,0.08702182073413511,0.0900184942165974,0.08702182073413511,0.0,-1.7991169262504124e-06,0.007689960745533788,0.22227269814119555,0.016671369618476536,0.20000122074017457,0.25000152592521824,0.23003189184216724,0.030030671101992673,-0.0005922252938173095,0.04968308690392288,-1.0446213873732262,0.005232055664492243,-1.0499978637061311,-1.0299923703743914,-1.0399951170402613,0.010002746665869866,-0.00013306513672952343,1.0912612173640397,-0.1043907551805106,0.005452769229850371,-0.12001373332925687,-0.09002105777153294,-0.10000427259132053,0.010026245918148755,0.00013430473834841325,0.010927162459431303,73.80043743213808,1.700990002852067,71.00067140737099,77.00070192589419,74.00068666663259,1.0006256294465459,-0.184654553387497,5449.397932164729,96.00000000029296,2.842170943040401e-14,96.00000000029299,96.00000000029299,96.00000000029299,0.0,-1.489473013244151e-15,9216.000000056254,32.00248462627155,0.022219468839097638,31.999984740715966,32.19997558516294,31.999984740715966,0.0,-8.204031359158924e-05,1024.159515959543,non_stress
noneeg_S01,noneeg,2026-01-01 00:04:30+00:00,2026-01-01 00:05:00+00:00,0.08788336436034301,0.0013562844534912883,0.08702182073413511,0.0900184942165974,0.08702182073413511,0.0029966734824622837,1.1766123026545674e-05,0.007725325238811592,0.20575773453453494,0.008034259702492066,0.19004181035778783,0.24004211554283147,0.20000122074017457,0.010010223700664234,-0.00013723705310167842,0.04240079464975125,-1.0469970397063701,0.004849011353097569,-1.0499978637061311,-1.0299923703743914,-1.0499978637061311,0.010002746665869866,1.8992556960512775e-05,1.0962263140650048,-0.10238550599688087,0.004266680112324131,-0.11003051850946928,-0.10000427259132053,-0.10000427259132053,0.0,-2.738062938266148e-05,0.010500996397418225,72.56692200502872,0.8823782859408222,71.00067140737099,74.00068666663259,73.00006103718604,0.999694814907528,-0.012688482772842031,5266.736760723419,96.00000000029296,2.842170943040401e-14,96.00000000029299,96.00000000029299,96.00000000029299,0.0,-1.489473013244151e-15,9216.000000056254,32.022483710716244,0.06319323032153269,31.999984740715966,32.19997558516294,31.999984740715966,0.0,0.0010055798437382996,1025.443456387446,non_stress
noneeg_S01,noneeg,2026-01-01 00:04:45+00:00,2026-01-01 00:05:15+00:00,0.09006235999619264,0.002185338691149019,0.08702182073413511,0.09202941984298656,0.0900184942165974,0.005007599108851443,7.172112847049012e-05,0.008116004393278833,0.31951732116120785,0.12113967261882298,0.19004181035778783,0.5500033570354801,0.2100114444408388,0.24004211554283145,0.004478138075390048,0.11676613880423004,-0.7402629169604009,0.31450684421508046,-1.0499978637061311,-0.37001861629141275,-1.0399951170402613,0.6324662007518362,0.011856617632613494,0.6469037412848502,-0.5248669812616031,0.4326270616599985,-1.0999609363078036,-0.10000427259132053,-0.11003051850946928,0.8699597155674386,-0.01619267746137582,0.46265152249923214,73.53360393095232,1.87503148277134,71.00067140737099,78.00039674080172,73.00006103718604,1.500240333265566,0.14772761860301994,5410.706650135552,95.76667378794446,0.4229396768004794,95.0000305187994,96.00000000029299,96.00000000029299,0.0,-0.017129621818690443,9171.434686376784,32.1274789040509,0.11064641450419585,31.999984740715966,32.59995727405689,32.19997558516294,0.19999084444697246,0.0033636528572599258,1032.187143359279,non_stress
noneeg_S01,noneeg,2026-01-01 00:05:00+00:00,2026-01-01 00:05:30+00:00,0.09232612994766456,0.0009472821486453333,0.0900184942165974,0.09601184118152196,0.09202941984298656,0.0,1.967521295098798e-05,0.008525011614582186,0.4327789372687613,0.03581104110199326,0.20000122074017457,0.5500033570354801,0.4350382244326739,0.010010223700664178,3.315491594593819e-06,0.1885800392082871,-0.4245299539177762,0.0725201715819599,-1.0499978637061311,-0.37001861629141275,-0.4150309762878275,0.010002746665869922,0.0006942547696915286,0.18548485705970613,-0.9579706831567762,0.09782474232349442,-1.0999609363078036,-0.11003051850946928,-0.9699639881587591,0.0,-0.0008431175095247567,0.9272775099985182,76.467065950674,2.8253429412329556,72.00036622227852,80.0007171851558,77.00070192589419,4.999404889076658,0.20512191228008725,5855.194737840301,95.76667378794446,0.4229396768004794,95.0000305187994,96.00000000029299,96.00000000029299,0.0,0.029587528595915354,9171.434686376784,32.20997512738528,0.053849182863247996,32.19997558516294,32.59995727405689,32.19997558516294,0.0,0.00020158477053983947,1037.4853974412738,stress
noneeg_S01,noneeg,2026-01-01 00:05:15+00:00,2026-01-01 00:05:45+00:00,0.09339221625400765,0.0015267938413070494,0.09202941984298656,0.09601184118152196,0.09301516769905968,0.0019714957121462484,3.857911170985832e-05,0.008724437156269185,0.432905970564455,0.013153393154796572,0.3900430310979624,0.48003341776738545,0.43003311258234184,0.010010223700664178,8.812584996293199e-05,0.18758059110183745,-0.41502993865850524,0.01350720788990159,-0.48996856593607707,-0.38002136295728267,-0.4150309762878275,0.010002746665869922,-7.636231843449626e-05,0.17243229464786367,-0.9692200880458405,0.007546347518045645,-0.9799902340769078,-0.9299880977812476,-0.9699639881587591,0.0,-1.1524385812832267e-06,0.9394445264324499,76.30038809388681,2.6852042085953767,73.00006103718604,80.0007171851558,75.50022888899389,4.999404889076658,-0.22447622820333277,5828.959544919604,96.00000000029296,2.842170943040401e-14,96.00000000029299,96.00000000029299,96.00000000029299,0.0,-1.489473013244151e-15,9216.000000056254,32.2649726096082,0.09367068174520113,32.19997558516294,32.39996642960991,32.19997558516294,0.19999084444697246,0.002479961479429167,1041.0372316953865,stress
noneeg_S01,noneeg,2026-01-01 00:05:30+00:00,2026-01-01 00:06:00+00:00,0.09483584398922673,0.00143576840081652,0.09202941984298656,0.09601184118152196,0.09601184118152196,0.0020109256263891595,3.564682378356478e-05,0.008995898736049737,0.4267766140472336,0.01523605000736203,0.3900430310979624,0.48003341776738545,0.43003311258234184,0.02002044740132841,-0.0003150217286633423,0.1823704155174482,-0.4081530503257197,0.016514065041718835,-0.48996856593607707,-0.37001861629141275,-0.4100296029548925,0.0200054933317399,0.00018183517426650692,0.16686162683439157,-0.974602202673362,0.009217457372138907,-0.9999996948148442,-0.9399713126010352,-0.9699639881587591,0.010026245918148713,-0.0001827727241958953,0.9499344149761759,82.10029348652071,10.590208525549288,73.00006103718604,104.99960325961715,77.00070192589419,15.249767296400137,1.1054388668621533,6852.610707187453,95.83333842004407,0.3726666226741435,95.0000305187994,96.00000000029299,96.00000000029299,0.0,-0.021133948997084626,9184.167633142348,32.35746837516492,0.0818115955363093,32.19997558516294,32.39996642960991,32.39996642960991,0.0,0.0017978548721382965,1047.012452786963,stress
noneeg_S01,noneeg,2026-01-01 00:05:45+00:00,2026-01-01 00:06:15+00:00,0.09578610492248121,0.0007079008065227588,0.09202941984298656,0.09601184118152196,0.09601184118152196,0.0,1.1072910750826125e-05,0.009175479019772458,0.44114407979019205,0.10629937504023099,0.08003097628703632,0.7800352488776473,0.4200228888816776,0.030030671101992645,0.001090520394025037,0.205907656267879,-0.46338917203362984,0.15035065992415253,-1.149983825191943,-0.25002716147386095,-0.4100296029548925,0.06493484298237973,-0.0028724376810440187,0.23733484569764113,-0.9162337450788345,0.14729232418943125,-1.1399798577836762,-0.34003173924983426,-0.9799902340769078,0.022505264442883144,0.003071297236675398,0.861179304386311,91.4335398421234,8.901707769427738,77.00070192589419,107.99961851887875,90.00045777784814,12.999523148319199,0.2516052786910876,8439.332609273457,96.56664937313938,1.0545872825594202,95.0000305187994,97.99993896328014,96.00000000029299,1.7499465926137674,0.10122049256497494,9326.22992549137,32.39746654405432,0.022219468839097638,32.19997558516294,32.39996642960991,32.39996642960991,0.0,0.00016173661822367248,1049.5963321779152,stress
noneeg_S01,noneeg,2026-01-01 00:06:00+00:00,2026-01-01 00:06:30+00:00,0.09631348002548033,0.0007180440717990491,0.09601184118152196,0.09802276680791114,0.09601184118152196,0.0,1.786546676984315e-05,0.009276802021907648,0.4587737605665648,0.10954601170635021,0.08003097628703632,0.7800352488776473,0.440043336283006,0.07998016296875887,0.00018163021700702087,0.22247369206515563,-0.47925815607247657,0.16076113508726228,-1.149983825191943,-0.25002716147386095,-0.4100296029548925,0.1424561296428718,0.0005307408310237822,0.2555325227165352,-0.8993558725241309,0.15315724707349948,-1.1399798577836762,-0.34003173924983426,-0.9699639881587591,0.16003265480512952,-0.0008835340601373778,0.8322981277747739,90.60024363964135,5.986501914541913,85.00012207423246,107.99961851887875,88.00013733349407,3.99971007416913,-0.41600493496954044,8244.242352735188,97.33329264228443,0.5962665962786297,96.00000000029299,97.99993896328014,96.99996948178656,0.9999694814935793,-0.010678205809054228,9474.125390442416,32.4199655140546,0.059997253334093864,32.39996642960991,32.59995727405689,32.39996642960991,0.0,0.0011298123186058088,1051.0577636028981,stress
noneeg_S01,noneeg,2026-01-01 00:06:15+00:00,2026-01-01 00:06:45+00:00,0.09694189428372695,0.0010026309611245996,0.09601184118152196,0.09802276680791114,0.09601184118152196,0.0020109256263891734,1.9303189029685193e-05,0.0093987361361615,0.4466509731585143,0.07348195126769862,0.3100120548109261,0.8500051881457419,0.4350382244326739,0.06251308481087386,-0.000251792141522183,0.20489668898555627,-0.42313953062604737,0.07851287655103262,-0.7599597155687905,-0.25002716147386095,-0.4000268562890225,0.04251167332994721,-0.00016713226351463837,0.1852113341627494,-0.9483543084505172,0.09370857676516758,-1.1599893185216126,-0.5599636829736894,-0.9699639881587591,0.07250740073854356,-9.28456973429469e-06,0.9081571917160123,89.13374533341529,1.8391673750048045,87.00044251858654,93.00047303710974,88.50045014821734,3.000015259261602,0.07920682970991713,7948.20709379541,96.86664021758743,0.6182223652340071,96.00000000029299,97.99993896328014,96.99996948178656,0.7499771111201881,-0.03381431839533618,9383.5281859364,32.47746288183312,0.09743141595286534,32.39996642960991,32.59995727405689,32.39996642960991,0.19999084444697957,0.0019478714455631334,1054.7950881216627,stress
noneeg_S01,noneeg,2026-01-01 00:06:30+00:00,2026-01-01 00:07:00+00:00,0.09768268379756591,0.0010634638764144535,0.09601184118152196,0.10101944029037342,0.09802276680791114,0.0,1.7509617801640542e-05,0.009543037669311685,0.4400255516216089,0.07841941891331099,0.3100120548109261,0.8500051881457419,0.43003311258234184,0.10000061037008728,-6.148101819527901e-05,0.1997720913426026,-0.4112664571069378,0.0437048314625401,-0.5199768059336869,-0.3100021362961931,-0.4100296029548925,0.060016479995219585,0.0004163515626993418,0.17105021103446175,-0.9647308687093133,0.09472476730437542,-1.1799987792595488,-0.5599636829736894,-0.9499975585191839,0.10000427259132061,-0.0005930791896944753,0.9396784305814944,87.86715496301942,3.273490142415931,83.00073244441741,93.00047303710974,88.00013733349407,6.999725333430732,-0.24026611461374686,7731.352659007763,96.26665852869125,0.44220314292272533,96.00000000029299,96.99996948178656,96.00000000029299,0.7499771111201738,-0.01423760774540477,9267.46508789926,32.54995956294515,0.08659857590769317,32.39996642960991,32.59995727405689,32.59995727405689,0.049997711111743115,0.0015845500567998067,1059.5073668627135,stress
noneeg_S01,noneeg,2026-01-01 00:06:45+00:00,2026-01-01 00:07:15+00:00,0.09907110965284491,0.0015556799429730067,0.09601184118152196,0.10101944029037342,0.09802276680791114,0.0029966734824622837,4.474130669948854e-05,0.009817504907930989,0.43264872814067523,0.06059597711893932,0.3100120548109261,0.5700238044368086,0.4200228888816776,0.08999038666942305,-9.73552685441108e-05,0.19085679440474296,-0.39489526047615325,0.039400932021835956,-0.5199768059336869,-0.32000488296206303,-0.3900241096231526,0.05001373332934966,0.0008066524513094366,0.15749470019071826,-0.980857310708885,0.08692373258963078,-1.1799987792595488,-0.7799816888942668,-0.9749771111178334,0.0799948118533842,0.0002841686584178877,0.9696367992583799,89.60026958037214,5.741898971040557,83.00073244441741,99.99926755600147,87.5002899260403,9.999740592692348,0.3995308636343342,8061.177712668994,96.49998474103978,0.49998474074678967,96.00000000029299,96.99996948178656,96.49998474103978,0.9999694814935793,0.05005408972993087,9312.49703976189,32.59245761739013,0.03799497097944406,32.39996642960991,32.59995727405689,32.59995727405689,0.0,0.0003914494962806699,1062.2697371591917,stress
noneeg_S01,noneeg,2026-01-01 00:07:00+00:00,2026-01-01 00:07:30+00:00,0.1005324808494733,0.0011054994104468324,0.09802276680791114,0.10101944029037342,0.10101944029037342,0.0,2.497227902051946e-05,0.010108001834696215,0.42251972830853746,0.06007299210360169,0.2800321970272109,0.5300337229524291,0.4200228888816776,0.08999038666942305,-0.00015443210848503072,0.18213168519019968,-0.41914206366232704,0.1340913853397821,-0.9999841303767815,-0.3000408948032106,-0.3900241096231526,0.052514419995817185,-0.002462527398164208,0.19366056915345617,-0.938859496597129,0.21375283902181538,-1.199965208899124,-0.010026245918148746,-0.9749771111178334,0.08997802667317178,0.003458458095446481,0.9271474305405004,90.43365886430804,5.320564568707895,83.00073244441741,99.99926755600147,90.5003051853019,7.999420148338274,-0.2693891168692986,8206.555062915839,96.73331095338827,0.4422031429227254,96.00000000029299,96.99996948178656,96.99996948178656,0.7499771111201881,-0.023136112586284764,9357.528991624516,32.5999572740569,7.105427357601002e-15,32.59995727405689,32.59995727405689,32.59995727405689,0.0,-1.2036819633179454e-17,1062.757214270335,stress
noneeg_S01,noneeg,2026-01-01 00:07:15+00:00,2026-01-01 00:07:45+00:00,0.10466720023177198,0.004233389367423147,0.10101944029037342,0.11202038636414945,0.10202490310356802,0.00800427259131374,0.00016587876545691823,0.010973144389894066,0.38927257415958005,0.10929004534211133,-0.15996032593751766,0.5400439466530933,0.41001266518101337,0.10499301889085005,-0.00047599727277794257,0.1634774510037065,-0.4723859370716408,0.1833364937913374,-1.1099728385284633,-0.2900381481373407,-0.4100296029548925,0.07993896298118464,-0.0003350457894256362,0.2567607434987533,-0.8854869495223312,0.29372861838853287,-1.199965208899124,0.06996856593523545,-0.9699639881587591,0.15251297036651779,7.013988336946715e-06,0.8703636390347999,89.96719667165387,3.701145044836205,83.00073244441741,95.00079348146383,91.50046540747894,5.000335703615676,0.20888886384389402,8107.794951598957,95.8000061039943,0.7915986466568461,95.0000305187994,96.99996948178656,96.00000000029299,0.9999694814935793,-0.06896341251680084,9178.267797942728,32.60370746479758,0.03333242440518704,32.59995727405689,32.89997253331135,32.59995727405689,0.0,0.00015120318973245832,1063.0028515006138,stress
noneeg_S01,noneeg,2026-01-01 00:07:30+00:00,2026-01-01 00:08:00+00:00,0.11052007812720617,0.003440544714751575,0.1030303659167626,0.1170279854730009,0.11202038636414945,0.005007599108851457,0.00013162622263058406,0.012226525017177957,0.3757733809926881,0.10831395153530064,-0.15996032593751766,0.5400439466530933,0.3850379192476303,0.1225109103670124,0.0012426083719341138,0.15293754595986742,-0.45238511307185075,0.14145320453013305,-1.1099728385284633,-0.2900381481373407,-0.4200323496207624,0.0824396496476521,0.0025787345852776797,0.22466129960087483,-0.9199839053010088,0.23140540523029204,-1.2199746696370604,0.06996856593523545,-0.9599807733389715,0.1424867244483693,-0.0034953653823179462,0.8999188475826913,95.56669769403672,3.8003528077612714,89.00076296294061,103.99990844470962,95.00079348146383,4.749248481715043,0.43087725981768416,9147.436389606859,95.90000305214363,0.9780635334588791,95.0000305187994,97.99993896328014,96.00000000029299,1.9999389629871587,0.08920751102979166,9197.76719367664,32.60370746479758,0.03333242440518704,32.59995727405689,32.89997253331135,32.59995727405689,0.0,-0.00013010507023436576,1063.0028515006138,stress
noneeg_S01,noneeg,2026-01-01 00:07:45+00:00,2026-01-01 00:08:15+00:00,0.11365081331809439,0.0019446894064584293,0.10902371288168716,0.11801373332907403,0.11403131199053862,0.0,5.2272827004421254e-05,0.012920289184751932,0.3985225035855174,0.07005543264972108,0.25000152592521824,0.5300337229524291,0.40000244148034914,0.11997024445313825,0.00033237937237170535,0.1637279495078084,-0.4282565996284061,0.056104997267299235,-0.5799932859289065,-0.3100021362961931,-0.43003509628663233,0.06993621631531471,-0.00031272678647116796,0.18655148584364858,-0.9613545411541512,0.09681946468582843,-1.229957884456848,-0.7199963377788189,-0.9599807733389715,0.11997070223089579,0.00032594392655261386,0.933576562539759,103.0329472744243,4.778301334079414,95.00079348146383,108.99931333378628,103.99990844470962,9.749816888965455,0.5301445406183781,10638.62038769356,96.39998779289039,0.663304714384088,95.0000305187994,97.99993896328014,96.00000000029299,0.9999694814935793,-0.014237607745405584,9293.397619613545,32.5999572740569,7.105427357601002e-15,32.59995727405689,32.59995727405689,32.59995727405689,0.0,-1.2036819633179454e-17,1062.757214270335,stress
noneeg_S01,noneeg,2026-01-01 00:08:00+00:00,2026-01-01 00:08:30+00:00,0.11440343180620624,0.0009213414295449238,0.11403131199053862,0.11801373332907403,0.11403131199053862,0.0,-1.1843300659908662e-05,0.013088994079067074,0.40677395130730226,0.06933118548125485,0.25000152592521824,0.5400439466530933,0.41001266518101337,0.11251338999591753,0.0002532167249413093,0.1702718607423917,-0.4320065919987851,0.05726470297663951,-0.5799932859289065,-0.3100021362961931,-0.43003509628663233,0.06993621631531471,0.0002968631708141209,0.18990894173740752,-0.9639772865992636,0.10574166326883645,-1.319978942228381,-0.7399627674183941,-0.9599807733389715,0.1299969481490445,-0.0003836616820196919,0.9404335084301387,106.83293557567103,2.4232699402246314,102.99928281526307,110.99963377814036,107.49977111142499,4.499557481622901,-0.09099866577442736,11419.148360918676,96.29999084474107,0.5259750754717015,96.00000000029299,97.99993896328014,96.00000000029299,0.7499771111201738,0.02602812665956366,9273.96488647723,32.5999572740569,7.105427357601002e-15,32.59995727405689,32.59995727405689,32.59995727405689,0.0,-1.2036819633179454e-17,1062.757214270335,stress
noneeg_S01,noneeg,2026-01-01 00:08:15+00:00,2026-01-01 00:08:45+00:00,0.11618862117355463,0.002786025454057981,0.11403131199053862,0.12302133243792548,0.11403131199053862,0.003982421338535408,8.77888647386348e-05,0.01350755762804245,0.5374003837697072,0.1707390355496553,0.2800321970272109,0.9700262459171577,0.48503852961771754,0.2625143055510485,0.005563169773432369,0.3179509907362551,-0.4471290017403192,0.10456811541879138,-0.6899819940805884,-0.10002746665869935,-0.44003784295250226,0.10994720297879446,-0.0007602850631968631,0.2108588349595321,-0.8956024849695794,0.16415418838863519,-1.3999737540817652,-0.3800076296273458,-0.8849775688954811,0.18998229926449228,0.002553733791548634,0.8290504086492174,105.13295795590743,2.4459075583093357,101.99958800035554,110.99963377814036,104.49975585216339,2.499935148173094,-0.21223648294018335,11058.921312342394,96.86664021758743,0.6699712609284812,96.00000000029299,97.99993896328014,96.99996948178656,0.9999694814935793,0.04538237468847166,9383.594848533996,32.60370746479758,0.03333242440518704,32.59995727405689,32.89997253331135,32.59995727405689,0.0,6.681071174205895e-05,1063.0028515006138,stress
noneeg_S01,noneeg,2026-01-01 00:08:30+00:00,2026-01-01 00:09:00+00:00,0.11826164891487645,0.002002424366217861,0.11403131199053862,0.12302133243792548,0.11801373332907403,0.0010251777703160492,2.1230319156186385e-05,0.013989827307407915,0.7066525601207412,0.1317860610324373,0.30000183111026185,0.9700262459171577,0.7100144962912752,0.15249076815072748,0.002326040391438072,0.5167254066076431,-0.4891213415945125,0.16292591650350477,-0.8199761955640101,-0.02000549333173987,-0.504972685934882,0.20993316446460636,-0.0004520410494420343,0.26578454107172284,-0.7793523590807349,0.13699690014859686,-1.3999737540817652,-0.3800076296273458,-0.7599722281563304,0.10998748741110809,0.0013963783070999913,0.6261582502550314,102.46629841022018,1.8025405055643844,98.99957274109394,104.99960325961715,101.99958800035554,2.7500915555347234,-0.190889664793481,10502.591462166496,97.13329874598571,0.3399242599422013,96.99996948178656,97.99993896328014,96.99996948178656,0.0,-0.02313611258628442,9434.993273779406,32.61120784627894,0.05699796458325157,32.59995727405689,32.89997253331135,32.59995727405689,0.0,0.00010197424423797243,1063.4941259611714,stress
noneeg_S01,noneeg,2026-01-01 00:08:45+00:00,2026-01-01 00:09:15+00:00,0.12019913632598814,0.003436740453256889,0.11600280770268487,0.1300004272589232,0.11903891109939008,0.0029966734824622837,0.00010514828654720157,0.014459643558456536,0.755902098528235,0.11878319522340715,0.4900436414680497,1.0300367748028656,0.7500299844347933,0.18498588518917825,6.11302323951716e-05,0.5854974300268716,-0.5057446821505881,0.2018429533502936,-0.8899954222250996,0.009961241492982508,-0.5299795525995568,0.2949565111245008,0.0003096756795284815,0.29651826134076825,-0.7469773743399917,0.09862052015966101,-1.0499588000121434,-0.46000244148073,-0.7499890133365428,0.13499931333352866,-0.0008880106661975468,0.56770120477243,99.56637674105455,2.155004429990043,95.00079348146383,101.99958800035554,99.99926755600147,2.000320444354074,-0.21688289375809972,9918.107421434885,96.49998474103974,0.49998474074678967,96.00000000029299,96.99996948178656,96.49998474103978,0.9999694814935793,-0.05005408972993665,9312.497039761887,32.607457655538255,0.04683986733832668,32.59995727405689,32.89997253331135,32.59995727405689,0.0,-0.0002461447274707634,1063.2484887308924,stress
noneeg_S01,noneeg,2026-01-01 00:09:00+00:00,2026-01-01 00:09:30+00:00,0.12475624866461418,0.004501318042875494,0.11801373332907403,0.13201135288531235,0.12503225806431464,0.008990020447386879,0.0001678682846882334,0.015584383444990163,0.7711492698438723,0.13180629366516666,0.5000030518504365,1.0600166325865807,0.7700250251769831,0.21251400036600487,-5.8062494438682563e-05,0.6120440954304857,-0.4737452314837041,0.20556594389794408,-0.9899813837109116,0.009961241492982508,-0.49997131260194705,0.3149620044562407,0.0012896083359248871,0.266691901644201,-0.7384798081911228,0.12134599900078591,-1.0499588000121434,-0.46000244148073,-0.7599722281563304,0.1724794000060932,0.00040923169673853245,0.5600772785794963,99.59985503730796,3.95423532877867,95.00079348146383,105.99929807452467,98.99957274109394,6.248790704076313,0.23136736195850044,9935.767100488125,96.03333231634275,0.179500015331592,96.00000000029299,96.99996948178656,96.00000000029299,0.0,0.0037818645573697075,9222.433136036629,32.5999572740569,7.105427357601002e-15,32.59995727405689,32.59995727405689,32.59995727405689,0.0,-1.2036819633179454e-17,1062.757214270335,stress
noneeg_S01,noneeg,2026-01-01 00:09:15+00:00,2026-01-01 00:09:45+00:00,0.13382710043619905,0.01010399900041823,0.12302133243792548,0.15803509628564275,0.1300004272589232,0.008990020447386865,0.0003730212226967966,0.01801178360696096,0.792650290306511,0.13354392371973214,0.48003341776738545,1.0600166325865807,0.7850403607279794,0.21997085482322554,0.00025660070612336535,0.6461284622854578,-0.44199896237143327,0.18218114118733458,-0.9899813837109116,0.0,-0.46500320444428966,0.24998565630097358,0.00029832548386732555,0.22855305094174314,-0.7236055711538606,0.10699272544664193,-0.9499975585191839,-0.5000213629566026,-0.7349711600085003,0.14251899777214005,-0.0004460396267607468,0.5350524659034054,104.3330469682249,4.832375140550807,95.00079348146383,110.99963377814036,105.99929807452467,4.500255592527168,0.49563337500235816,10908.736539172833,96.59998168918915,0.7999755851948636,96.00000000029299,97.99993896328014,96.00000000029299,0.9999694814935793,0.06228953388613903,9332.196423288584,32.59495750294572,0.031223560581734817,32.39996642960991,32.59995727405689,32.59995727405689,0.0,-0.0003422253081254199,1062.4322295295729,stress
noneeg_S01,noneeg,2026-01-01 00:09:30+00:00,2026-01-01 00:10:00+00:00,0.1487286507764564,0.011591113873104712,0.1300004272589232,0.16000659199778897,0.15503842280318045,0.02101614429147894,0.00045335528262234367,0.022254565482604412,0.7844013832506401,0.13202050941853685,0.48003341776738545,1.0400469985035297,0.7700250251769831,0.2149657429728934,-0.0010162616010566245,0.6327149449526475,-0.436750114445157,0.18181147973236284,-0.8699899288933598,-0.060016479995219606,-0.4150309762878275,0.24497390667481678,-4.939709060604862e-05,0.2238060766303291,-0.7334790566728273,0.0972214211817544,-0.9099786370433112,-0.4400360118411548,-0.7399627674183941,0.1325035096285817,-0.0006218780498388808,0.5474435313142607,109.59953357569768,2.3180631974586854,104.99960325961715,112.99995422249444,110.99963377814036,3.7497863704422656,0.2549497916209466,12017.431176997905,97.06663411388614,0.573470849128249,96.00000000029299,97.99993896328014,96.99996948178656,0.0,0.0017797009681735673,9422.260327013844,32.56995864738984,0.07141101509909754,32.39996642960991,32.59995727405689,32.59995727405689,0.0,-0.0013313970891455215,1060.807305825762,stress
noneeg_S01,noneeg,2026-01-01 00:09:45+00:00,2026-01-01 00:10:15+00:00,0.2116316858421224,0.07249782342820281,0.1530274971767913,0.43100839258941137,0.16000659199778897,0.09851564073594765,0.0026458022405407965,0.050043904854205665,0.7785248229918491,0.12632371124158115,0.5600135807361443,1.1100169377716242,0.765019913326651,0.20000122074017457,0.0007690701731267313,0.6220585800363363,-0.44825016022294084,0.18688235813781418,-0.8699899288933598,-0.060016479995219606,-0.42503372295369735,0.31495162816301886,-0.00045739021588683164,0.23585322192304234,-0.7323527176732242,0.09234367511012637,-0.9099786370433112,-0.4400360118411548,-0.7349711600085003,0.12250953703420375,5.67786567194317e-05,0.5448678574162017,112.89961241518807,1.4911664293094506,110.99963377814036,115.99996948175604,112.99995422249444,2.000320444354074,0.16530230824187137,12748.54606081959,96.99996948178656,0.0,96.99996948178656,96.99996948178656,96.99996948178656,0.0,-2.635380557968986e-15,9408.994079467526,32.53371066924113,0.10361090700123626,32.39996642960991,32.89997253331135,32.59995727405689,0.19999084444697957,-0.001395849519910165,1058.453065129944,stress
noneeg_S01,noneeg,2026-01-01 00:10:00+00:00,2026-01-01 00:10:30+00:00,0.46601673482392025,0.3406265959692535,0.16000659199778897,1.8229632251931438,0.40652241584455506,0.3430008239992031,0.010980386784102738,0.33319807501754906,0.6689001701400065,0.22126951963910577,0.0700207525863721,1.1100169377716242,0.6900448622082243,0.22998107852388983,-0.005806912899524166,0.4963876379346502,-0.40225516525841626,0.2543191837375324,-1.0099868770426514,0.6899819940805884,-0.4100296029548925,0.26244758446042354,0.003564063108735355,0.22648746519400054,-0.7674806169316222,0.39760210068130836,-1.779981383709111,0.7899649037140544,-0.7399627674183941,0.15246993926815688,-0.0004136911549160894,0.7471139278319326,113.6996785386271,1.4867041952136513,110.99963377814036,116.99966429666357,113.99964903740197,0.999694814907528,-0.0464997255541807,12929.827189151207,96.19999389659172,0.8717531832910556,95.0000305187994,96.99996948178656,96.49998474103978,1.9999389629871587,-0.09209952510308217,9255.198779316857,32.49121261479615,0.10861700408916132,32.39996642960991,32.89997253331135,32.39996642960991,0.19999084444697957,-0.0016841898067561725,1055.6906948334656,stress
noneeg_S01,noneeg,2026-01-01 00:10:15+00:00,2026-01-01 00:10:45+00:00,1.1495500701907193,0.5554774935455984,0.4050240791033239,1.8229632251931438,1.5639875484456136,1.0422312082261107,0.020783414907000735,1.6300206097111882,0.4036546487315432,0.22486226191548667,0.0700207525863721,0.9400463881334424,0.25000152592521824,0.3749768822286885,-0.0068089560622245325,0.21350011227633453,-0.689001953185784,0.4058282724171424,-1.0499978637061311,0.6899819940805884,-0.9199829096362657,0.6699765007488485,-0.011912813068169166,0.6394202781869076,-0.4572527542954522,0.5270386627726774,-1.779981383709111,0.7899649037140544,-0.12001373332925687,0.6574398785362919,0.014425785359072555,0.4868498333679893,113.79967904726915,8.478597179858689,95.00079348146383,124.99908444500183,112.99995422249444,9.500358592508093,-0.2713921800586078,13022.253561399779,95.20002441509816,0.3999877925974317,95.0000305187994,96.00000000029299,95.0000305187994,0.0,-0.032034617427160184,9063.204638869503,32.43496482738813,0.0759899419588881,32.39996642960991,32.59995727405689,32.39996642960991,0.0,-0.001528293841765365,1052.0327178251846,non_stress
noneeg_S01,noneeg,2026-01-01 00:10:30+00:00,2026-01-01 00:11:00+00:00,1.7212572115210159,0.15293078340544602,1.5349671315628208,2.2059854121489155,1.6839727774868338,0.1587251197848938,0.002935055691839659,2.9861142127261053,0.25315512749081454,0.07915889690655124,0.12002105777141574,0.7500045777756547,0.24004211554283147,0.00248985259559667,-0.0009218216066917026,0.07035364953435255,-1.038245155188395,0.022848178701931295,-1.0499978637061311,-0.8599871822274898,-1.0399951170402613,0.0,-0.00023795472132042396,1.07847504154217,-0.10939742347483081,0.016982085709960407,-0.12001373332925687,0.0,-0.11003051850946928,0.00998321481978759,-0.00028776517462058475,0.012256187497991905,105.83320973361221,12.646262167202407,93.00047303710974,124.99908444500183,98.99957274109394,25.9995117039079,-1.0475842393207417,11360.596229320363,95.066695150899,0.2494362131319306,95.0000305187994,96.00000000029299,95.0000305187994,0.0,0.01245790677722567,9037.73874533838,32.404966200721084,0.03122356058173482,32.39996642960991,32.59995727405689,32.39996642960991,0.0,-9.376035838934186e-06,1050.0828093806117,non_stress
noneeg_S01,noneeg,2026-01-01 00:10:45+00:00,2026-01-01 00:11:15+00:00,1.8844788201513871,0.2519846566074852,1.5349671315628208,2.6629781182244145,1.799482711261482,0.23325751518258264,0.004488809208816362,3.614756690764756,0.24202955145395952,0.006192359114902884,0.220021668141503,0.25000152592521824,0.24004211554283147,0.009959410382386763,4.855077964485323e-05,0.05861664908841278,-1.041620563373465,0.003690101910229498,-1.0499978637061311,-1.0399951170402613,-1.0399951170402613,0.0,-1.5358178776712378e-05,1.0849870148945626,-0.11527116840112825,0.0056882192447862915,-0.12001373332925687,-0.09002105777153294,-0.12001373332925687,0.00998321481978759,-3.724772277621074e-05,0.013319798102738025,109.53313547191428,13.425407181469247,93.00047303710974,126.99940488935592,112.49964140777116,29.24921796326163,1.3036338209342861,12177.74932429697,95.60001220769554,0.7117834935700083,95.0000305187994,96.99996948178656,95.0000305187994,0.9999694814935793,0.0676286367906653,9139.86896985326,32.4024663151655,0.02221946883909843,32.39996642960991,32.59995727405689,32.39996642960991,0.0,-3.984815231590993e-05,1049.9203170102307,non_stress
noneeg_S01,noneeg,2026-01-01 00:11:00+00:00,2026-01-01 00:11:30+00:00,2.059480115661832,0.26199455092252033,1.6819618518604447,2.6629781182244145,2.0359636219334236,0.39901101718127796,0.005543389808877818,4.3100994915195665,0.24152205343766314,0.02162118839951804,0.16001113925579516,0.27002197332654665,0.25000152592521824,0.009959410382386763,-0.00026357532837309586,0.05880037808455287,-1.042245216225421,0.008798280934280998,-1.1099728385284633,-1.0199896237085213,-1.0399951170402613,0.0,-5.1786605482084814e-05,1.086352500492173,-0.10751965392009599,0.02452289695390899,-0.12001373332925687,0.0,-0.11003051850946928,0.00998321481978759,0.0005572648281646613,0.01216184845410925,111.93308562502098,11.761067102774875,93.00047303710974,126.99940488935592,111.49948118559414,20.749950407469584,-1.2409128659919937,12667.338356934248,96.56664937313936,0.7608242607721637,95.0000305187994,97.99993896328014,96.99996948178656,0.9999694814935793,0.06028737029694068,9325.696624710614,32.399966429609904,7.105427357601002e-15,32.39996642960991,32.39996642960991,32.39996642960991,0.0,1.7152387795571064e-16,1049.7578246398496,non_stress
noneeg_S01,noneeg,2026-01-01 00:11:15+00:00,2026-01-01 00:11:45+00:00,2.11723163243166,0.17195918213102623,1.9019807733359653,2.5199658192653263,2.0559940183688297,0.21499160740954748,-0.0015158537532970605,4.512239745688404,0.21489587466026192,0.03390124914518228,0.16001113925579516,0.27002197332654665,0.20000122074017457,0.06996993926809464,-0.0011013494911445792,0.047329531639602705,-1.0433705252253311,0.009073890795721413,-1.1099728385284633,-1.0199896237085213,-1.0399951170402613,0.010002746665869866,-6.812160548661769e-05,1.0887043884031562,-0.07563952681050597,0.03255815460675235,-0.12001373332925687,0.0,-0.06002838221380901,0.06002838221380902,0.0010802394389538368,0.006781371447514439,96.66688945200711,7.734157414617858,87.00044251858654,110.99963377814036,94.00016785201728,9.749351481695967,-0.7941813185799929,9404.304707240652,96.56664937313933,0.6155207250741452,96.00000000029299,97.99993896328014,96.49998474103978,0.9999694814935793,-0.058062744086727514,9325.496636917827,32.40746608627667,0.03799497097944405,32.39996642960991,32.59995727405689,32.39996642960991,0.0,0.0002648730124534362,1050.245301750993,non_stress
noneeg_S01,noneeg,2026-01-01 00:11:30+00:00,2026-01-01 00:12:00+00:00,1.991818382820973,0.15866067247321713,1.7759627674155773,2.4899990844407034,1.9519976195531155,0.1700020752583704,-0.0028491934950859985,3.99251367913321,0.19464422666077086,0.009598327733349343,0.17002136295645937,0.2100114444408388,0.20000122074017457,0.009959410382386735,0.00025384385133777167,0.037978502867646334,-1.044996490373196,0.005001373332934934,-1.0499978637061311,-1.0399951170402613,-1.044996490373196,0.010002746665869866,-2.3916553209538027e-05,1.0920426786275128,-0.05401317255164928,0.0051598651488662635,-0.06002838221380901,-0.040018921475872674,-0.05000213629566026,0.010026245918148748,-6.321163444559844e-05,0.0029440470174487234,86.567179377824,5.110007665056442,80.0007171851558,95.00079348146383,85.50043488895574,9.000045777784806,-0.5639580612550984,7519.988723769292,96.1999938965917,0.3999877925974317,96.00000000029299,96.99996948178656,96.00000000029299,0.0,0.021356411618102235,9254.59881593851,32.42246539961019,0.06319323032153494,32.39996642960991,32.59995727405689,32.39996642960991,0.0,0.00018986472574102303,1051.220255973279,non_stress
noneeg_S01,noneeg,2026-01-01 00:11:45+00:00,2026-01-01 00:12:15+00:00,1.767691850029196,0.17534949799341373,1.460996612443094,2.1789759208925124,1.7899998168860587,0.26049372844588303,-0.006192023913853362,3.1554819231061835,0.2012582152010638,0.005777318671663453,0.19004181035778783,0.2100114444408388,0.20000122074017457,0.0,7.969031503463552e-05,0.04053824659695167,-1.0459967650397832,0.004900325071541375,-1.0499978637061311,-1.0399951170402613,-1.0499978637061311,0.010002746665869866,-1.1489324581058606e-05,1.0941332456594979,-0.05614321192052637,0.0048845802876533746,-0.06002838221380901,-0.05000213629566026,-0.06002838221380901,0.010026245918148748,-1.6334366884935538e-05,0.0031759193693396658,79.90043743215207,2.4678817946482225,76.00007629644765,84.00042725932494,80.0007171851558,3.999710074169144,-0.2800995928620005,6390.1703424016,96.36665547684062,0.4818797031290583,96.00000000029299,96.99996948178656,96.00000000029299,0.9999694814935793,0.010455743188029205,9286.764495840389,32.43246494183254,0.07377839525220369,32.39996642960991,32.59995727405689,32.39996642960991,0.0,0.00017580067198230662,1051.8702254548036,non_stress
noneeg_S01,noneeg,2026-01-01 00:12:00+00:00,2026-01-01 00:12:30+00:00,1.462969586777024,0.18937856972327496,1.1450052797002943,1.8049831842983701,1.456994476147437,0.3184458449044216,-0.008194797363880072,2.1761442545049703,0.2232603820152141,0.06911708203287893,0.19004181035778783,0.6000036622205237,0.2100114444408388,0.010010223700664234,0.0013649230328327865,0.05462236920631906,-1.0426208380400521,0.015231111598903746,-1.0499978637061311,-0.9599731437133018,-1.0499978637061311,0.010002746665869866,0.0002470204784925904,1.0872901986758787,-0.056895180364387524,0.0046472893630889875,-0.06002838221380901,-0.05000213629566026,-0.06002838221380901,0.010026245918148748,-4.112970078940521e-06,0.0032586588471204677,77.70048829632947,1.6360838900286572,76.00007629644765,84.00042725932494,77.00070192589419,0.999694814907528,-0.03580830071555881,6040.042651983243,96.33332316079083,0.47139013422913717,96.00000000029299,96.99996948178656,96.00000000029299,0.9999694814935793,-0.020466561134020577,9280.33135986001,32.43996459849931,0.07999633777879182,32.39996642960991,32.59995727405689,32.39996642960991,0.0,0.0003844174694012769,1052.3577025659465,non_stress
noneeg_S01,noneeg,2026-01-01 00:12:15+00:00,2026-01-01 00:12:45+00:00,1.201502432323269,0.13108957241538216,0.9760086672551184,1.4529923398517801,1.2035192724367947,0.20074755088929086,-0.0042832384948763,1.4607925708747795,0.4226359637740972,0.19065224356327884,0.20000122074017457,0.6100138859211879,0.5900442518381369,0.3899922177796849,0.00727449467721683,0.21496943585097178,-0.9976084780436374,0.043950768689799004,-1.0499978637061311,-0.9499703970474318,-0.9599731437133018,0.08002197332695948,0.0016829515751120784,0.9971543455329666,-0.053761978514966044,0.004853935433246274,-0.06002838221380901,-0.05000213629566026,-0.05000213629566026,0.010026245918148748,0.0001210388337516785,0.0029139110230337936,78.33387656298132,3.05870872355443,76.00007629644765,87.00044251858654,77.00070192589419,0.7497711111806495,0.02446251014983402,6145.55191643994,96.13332926449212,0.3399242599422014,96.00000000029299,96.99996948178656,96.00000000029299,0.0,-0.023136112586283526,9241.732543977756,32.46996322516635,0.09538955322122614,32.39996642960991,32.59995727405689,32.39996642960991,0.19999084444697957,0.0011204362827667885,1054.3076110105194,non_stress
noneeg_S01,noneeg,2026-01-01 00:12:30+00:00,2026-01-01 00:13:00+00:00,1.064157690662673,0.087435704073357,0.9230148625126274,1.2790275582119957,1.0480076906626992,0.11924591814916541,-0.0018390676739834062,1.1400765929433172,0.5852582724228765,0.08106639019964583,0.17002136295645937,0.6100138859211879,0.6000036622205237,0.0,-0.0011774104536055746,0.3490990050594112,-0.9585977660467446,0.018290518716574774,-1.0499978637061311,-0.9499703970474318,-0.9599731437133018,0.010002746665869977,-0.00021606964492732194,0.9192442201447306,-0.052253200628678095,0.009615634712222678,-0.10000427259132053,-0.05000213629566026,-0.05000213629566026,0.0,-0.00013690617301023717,0.002822857406859786,77.4337789037489,3.4994384927010618,72.00036622227852,87.00044251858654,77.00070192589419,2.000320444354074,-0.31168267892701984,6008.23618507887,96.00000000029296,2.842170943040401e-14,96.00000000029299,96.00000000029299,96.00000000029299,0.0,-1.489473013244151e-15,9216.000000056254,32.519961661092694,0.11553929468373807,32.39996642960991,32.89997253331135,32.59995727405689,0.19999084444697957,0.0013384794078957186,1057.5612557675552,non_stress
noneeg_S01,noneeg,2026-01-01 00:12:45+00:00,2026-01-01 00:13:15+00:00,1.0843586214771797,0.10864446336584166,0.9230148625126274,1.356034180728428,1.0705221716954092,0.15446668904665806,0.001870776127757854,1.187637239391941,0.3757708403267742,0.20895972224234788,0.17002136295645937,0.6100138859211879,0.19004181035778783,0.4199720755634001,-0.007808425207559726,0.18486788995948925,-1.004110263376453,0.046775375847831695,-1.0499978637061311,-0.9499703970474318,-1.0399951170402613,0.10002746665869933,-0.0017692387474758917,1.0104253568036352,-0.0770036126285545,0.024820186830059345,-0.10000427259132053,-0.05000213629566026,-0.10000427259132053,0.05000213629566026,-0.0009315894881032398,0.006545598032127531,73.90037588647753,2.3431000749901365,71.00067140737099,78.00039674080172,73.00006103718604,3.99971007416913,-0.2138001271190779,5466.755674124087,96.00000000029296,2.842170943040401e-14,96.00000000029299,96.00000000029299,96.00000000029299,0.0,-1.489473013244151e-15,9216.000000056254,32.56495960109327,0.09759412675758346,32.39996642960991,32.89997253331135,32.59995727405689,0.0,0.001160280357363526,1060.4861184344143,non_stress
noneeg_S01,noneeg,2026-01-01 00:13:00+00:00,2026-01-01 00:13:30+00:00,1.0815842341362618,0.10105131698997188,0.9670186468077315,1.356034180728428,1.0390176702153122,0.13848771629971268,-0.0022787458784058055,1.1800358241975317,0.18403504097091083,0.006447060249226684,0.17002136295645937,0.20000122074017457,0.1800315866571236,0.010010223700664234,9.202439639336587e-05,0.03391046089102199,-1.0471220740396938,0.004527209879397285,-1.0499978637061311,-1.0399951170402613,-1.0499978637061311,0.010002746665869866,-8.20666041504155e-07,1.0964851335704815,-0.10025492873927425,0.0015653471422572272,-0.11003051850946928,-0.10000427259132053,-0.10000427259132053,0.0,-1.621685345410906e-05,0.010053501048192729,75.63373872104064,4.438425580216814,71.00067140737099,84.00042725932494,73.00006103718604,7.50027085178877,0.4634124894311817,5740.16205455377,96.00000000029296,2.842170943040401e-14,96.00000000029299,96.00000000029299,96.00000000029299,0.0,-1.489473013244151e-15,9216.000000056254,32.59245761739013,0.03799497097944406,32.39996642960991,32.59995727405689,32.59995727405689,0.0,0.0004336416575562183,1062.2697371591917,non_stress
noneeg_S01,noneeg,2026-01-01 00:13:15+00:00,2026-01-01 00:13:45+00:00,1.0562342493955572,0.09435555332872807,0.9320048829600143,1.2820242316944581,1.0315259865091566,0.138004699850237,0.0020207669299967946,1.124533760040167,0.18728582300771285,0.005694114938283062,0.1800315866571236,0.20000122074017457,0.19004181035778783,0.010010223700664234,8.180336769812268e-05,0.03510840244460671,-1.0469970397063701,0.004583834375381582,-1.0499978637061311,-1.0399951170402613,-1.0499978637061311,0.010002746665869866,-1.1723800592905183e-06,1.0962238126914832,-0.10038079470198062,0.0024759480381197686,-0.11003051850946928,-0.09002105777153294,-0.10000427259132053,0.0,-2.9575054007248063e-06,0.010082434263688647,78.73372346179303,3.086951566020895,73.00006103718604,84.00042725932494,78.50024414825549,5.7501068147963394,0.006667282694730946,6208.5284801290545,96.06666463239253,0.24943621313193057,96.00000000029299,96.99996948178656,96.00000000029299,0.0,0.0008898504840854863,9228.866272017005,32.59245761739013,0.03799497097944405,32.39996642960991,32.59995727405689,32.59995727405689,0.0,-0.00032581724540698467,1062.2697371591917,non_stress
noneeg_S01,noneeg,2026-01-01 00:13:30+00:00,2026-01-01 00:14:00+00:00,1.0561972838509548,0.09855301146273297,0.9320048829600143,1.2820242316944581,1.0390176702153122,0.16274697103767233,-0.0010631149674585902,1.1252653984825076,0.1925284871209922,0.008127646820665694,0.1800315866571236,0.2100114444408388,0.19004181035778783,0.009959410382386735,0.00020078943464633782,0.037133276995939525,-1.0473721427063403,0.0044011374901745245,-1.0499978637061311,-1.0399951170402613,-1.0499978637061311,0.010002746665869866,-2.4033791215458624e-05,1.0970077753284777,-0.10038079470198062,0.0024759480381197686,-0.11003051850946928,-0.09002105777153294,-0.10000427259132053,0.0,3.7321862150993716e-07,0.010082434263688647,78.03359579269343,2.2728039528545416,75.00038148154012,82.00010681497086,77.50054933334795,3.7504844813465184,-0.04204713952125107,6094.407710145573,96.06666463239253,0.24943621313193057,96.00000000029299,96.99996948178656,96.00000000029299,0.0,-0.012457906777229548,9228.866272017005,32.589957731834545,0.04358699402888732,32.39996642960991,32.59995727405689,32.59995727405689,0.0,9.844837630993161e-05,1062.1072447888107,non_stress
noneeg_S01,noneeg,2026-01-01 00:13:45+00:00,2026-01-01 00:14:15+00:00,0.9407455091998147,0.0904019705012975,0.8030296334714072,1.1150385448756714,0.9395359965804129,0.14923236793090988,-0.0039031261727404077,0.893174629350136,0.20426826914252622,0.010806324498322277,0.1800315866571236,0.220021668141503,0.2100114444408388,0.012500076296260931,0.0003893007707271749,0.04184230242764657,-1.0471220740396936,0.004527209879397285,-1.0499978637061311,-1.0399951170402613,-1.0499978637061311,0.010002746665869866,1.4654750741131082e-05,1.0964851335704813,-0.10025546662800375,0.0022254031214770757,-0.11003051850946928,-0.09002105777153294,-0.10000427259132053,0.0,1.454190880270865e-05,0.010056111007851854,77.86697999020883,1.7838639317443103,75.00038148154012,82.00010681497086,78.00039674080172,2.7498588518999725,0.054740592160369056,6066.448743322562,96.03333231634275,0.17950001533159204,96.00000000029299,96.99996948178656,96.00000000029299,0.0,0.006451416009634854,9222.43313603663,32.59995799887149,0.061237991181624624,32.39996642960991,32.89997253331135,32.59995727405689,0.0,0.0004477492069869342,1062.7610116197493,non_stress
noneeg_S01,noneeg,2026-01-01 00:14:00+00:00,2026-01-01 00:14:30+00:00,0.8362089205589724,0.04418852496865153,0.769001617479763,0.9380376598391817,0.8255046845898744,0.06099807733380469,-0.00170933576943161,0.7011979845613068,0.21701479003243293,0.025418075311007825,0.20000122074017457,0.4200228888816776,0.2100114444408388,0.010010223700664206,0.00032987444015563516,0.047741497645337014,-1.0456216620398129,0.005884589169076239,-1.0499978637061311,-1.0199896237085213,-1.0499978637061311,0.010002746665869866,5.82672889467551e-05,1.0933592885165897,-0.09975523010955534,0.0038654149309184853,-0.11003051850946928,-0.0700115970335966,-0.10000427259132053,0.0,2.554883204032946e-05,0.009966047366798503,78.73372346179302,0.963780167471801,77.00070192589419,80.0007171851558,79.00009155570925,0.999694814907528,0.06718575856316607,6199.928082369306,96.03333231634275,0.179500015331592,96.00000000029299,96.99996948178656,96.00000000029299,0.0,-0.00022246262102204733,9222.433136036629,32.60245788442708,0.05695510766366705,32.39996642960991,32.89997253331135,32.59995727405689,0.0,0.0002109499324607013,1062.9235039901305,non_stress
noneeg_S01,noneeg,2026-01-01 00:14:15+00:00,2026-01-01 00:14:45+00:00,0.7582959028888809,0.05971748932392586,0.6580064088859297,0.8730177312525987,0.7650191961412276,0.0990085146639843,-0.002551829460161224,0.5785788548692163,0.3102673917352704,0.09231853456472346,0.2100114444408388,0.4200228888816776,0.3900430310979624,0.18999099703951033,0.003417231387858562,0.10478856619838581,-1.032117954040889,0.013577024525017892,-1.0499978637061311,-1.0099868770426514,-1.0199896237085213,0.03000823999760982,0.0004943926710029617,1.0654518066485028,-0.08851819666126964,0.011937884140585093,-0.11003051850946928,-0.0700115970335966,-0.08003784295174535,0.01996642963957518,0.00041038917881470316,0.007977984217917242,79.53375855808073,0.7182119517193833,78.00039674080172,81.00041200006333,80.0007171851558,1.00062562944656,-0.013791793087391476,6326.134578782673,96.00000000029296,2.842170943040401e-14,96.00000000029299,96.00000000029299,96.00000000029299,0.0,-1.489473013244151e-15,9216.000000056254,32.5999572740569,7.105427357601002e-15,32.59995727405689,32.59995727405689,32.59995727405689,0.0,-1.2036819633179454e-17,1062.757214270335,non_stress
noneeg_S01,noneeg,2026-01-01 00:14:30+00:00,2026-01-01 00:15:00+00:00,0.6663547074790129,0.04807677008591994,0.5890040589608112,0.7610367748026923,0.6580064088859297,0.0710132755515076,-0.00205704180410216,0.4463399720013352,0.3935300950647547,0.008369720062104447,0.38003280739729817,0.4200228888816776,0.3900430310979624,0.009959410382386735,-0.0002617636298944273,0.15493598793559285,-1.020114658041845,0.0024975588520270574,-1.0299923703743914,-1.0099868770426514,-1.0199896237085213,0.0,-2.8957787464487556e-05,1.040640153352049,-0.07853390606402302,0.0035800858815714554,-0.08003784295174535,-0.0700115970335966,-0.08003784295174535,0.0,-5.899174227508965e-05,0.006180391416592221,77.50042522474274,2.2472940764242786,75.00038148154012,81.00041200006333,77.50054933334795,5.00033570361569,-0.2449456578735425,6011.366240681875,96.00000000029296,2.842170943040401e-14,96.00000000029299,96.00000000029299,96.00000000029299,0.0,-1.489473013244151e-15,9216.000000056254,32.5999572740569,7.105427357601002e-15,32.59995727405689,32.59995727405689,32.59995727405689,0.0,-1.2036819633179454e-17,1062.757214270335,non_stress
noneeg_S01,noneeg,2026-01-01 00:14:45+00:00,2026-01-01 00:15:15+00:00,0.5915926328308592,0.03912950772579965,0.5300169072533956,0.6580064088859297,0.5890040589608112,0.0719793084504593,-0.001683428115980387,0.3515129615946112,0.3845348673966832,0.008050077396010288,0.3600123599959697,0.40000244148034914,0.3900430310979624,0.010010223700664234,-0.0001668561196498991,0.14793186798986652,-1.0219901730416954,0.0043023440191820245,-1.0299923703743914,-1.0099868770426514,-1.0199896237085213,0.0,-4.994339052579987e-05,1.0444824239578536,-0.08053539002654617,0.0044416653232405975,-0.10000427259132053,-0.06002838221380901,-0.08003784295174535,0.0,-5.4335083447517296e-05,0.006505677437571593,75.56715445434942,1.054677152819225,74.00068666663259,77.00070192589419,75.00038148154012,2.000320444354074,0.03404917512957607,5711.5071762241805,96.00000000029296,2.842170943040401e-14,96.00000000029299,96.00000000029299,96.00000000029299,0.0,-1.489473013244151e-15,9216.000000056254,32.5999572740569,7.105427357601002e-15,32.59995727405689,32.59995727405689,32.59995727405689,0.0,-1.2036819633179454e-17,1062.757214270335,non_stress
noneeg_S01,noneeg,2026-01-01 00:15:00+00:00,2026-01-01 00:15:30+00:00,0.5261808694714871,0.038492433280441905,0.4230041199980976,0.5890040589608112,0.5300169072533956,0.05798168889422095,-0.0016164199067017534,0.27834797481761936,0.3865311956385099,0.08813503919805232,0.0,1.0600166325865807,0.38003280739729817,0.010010223700664234,0.000251856462178234,0.15717415033617815,-1.0003654591526847,0.10239870147671676,-1.0299923703743914,-0.28003540147147077,-1.0199896237085213,0.0,0.0015926977691368726,1.0112165459298794,-0.11628186132388582,0.15925049580886158,-0.9999996948148442,-0.06002838221380901,-0.08003784295174535,0.00998321481978759,-0.0024911646983514237,0.038882191688315665,75.83377076547605,1.0672009134167393,74.00068666663259,77.00070192589419,76.00007629644765,2.000320444354074,0.03180258849246218,5751.899706300371,96.00000000029296,2.842170943040401e-14,96.00000000029299,96.00000000029299,96.00000000029299,0.0,-1.489473013244151e-15,9216.000000056254,32.607457655538255,0.04683986733832667,32.59995727405689,32.89997253331135,32.59995727405689,0.0,0.00037976615095505507,1063.2484887308924,non_stress
noneeg_S01,noneeg,2026-01-01 00:15:15+00:00,2026-01-01 00:15:45+00:00,0.758485659351175,0.45113512377976966,0.41902169865956224,1.8379860225196982,0.5110116885883058,0.46372536393247826,0.014814097914543214,0.7788233953491748,0.4947788075650326,0.23031817827786683,-0.029979857783715192,1.2399974059254268,0.3900430310979624,0.2274785225987237,0.003967000879753149,0.2978525316607109,-0.7206195562621038,0.3501593554778097,-1.3499972533364544,0.24998565630097352,-0.739995727409938,0.5075148777742369,0.008550693640808545,0.6419041190960264,-0.43301064714496695,0.3914732723866363,-1.2399841303749968,0.4499761955625812,-0.3250138859217917,0.7024396496474684,-0.011625320771639412,0.3407495435340046,76.06700186180319,1.4590385199318965,74.00068666663259,80.0007171851558,76.00007629644765,1.7501640369924445,0.04183322819337158,5788.317565646214,95.8000061039943,0.39998779259743167,95.0000305187994,96.00000000029299,96.00000000029299,0.0,-0.03203461742716037,9177.801159759567,32.607457655538255,0.04683986733832668,32.59995727405689,32.89997253331135,32.59995727405689,0.0,-0.0001828503689781273,1063.2484887308924,stress
noneeg_S01,noneeg,2026-01-01 00:15:30+00:00,2026-01-01 00:16:00+00:00,1.2077545381004129,0.4259746075710498,0.41902169865956224,1.8379860225196982,1.3010294503595479,0.5732123783065197,0.013155835714879034,1.6401253905974513,0.7568980395664737,0.31756175473250037,-0.029979857783715192,1.339998016295514,0.7400451673932679,0.5200234992517648,0.006543524368250509,0.673740110368356,-0.4470070802949623,0.30683579679688294,-1.3499972533364544,0.24998565630097352,-0.4150309762878275,0.3224640644556432,-0.0024800814788445043,0.293963536029805,-0.4843800965910529,0.39434127866550167,-1.2399841303749968,0.7799816888942668,-0.34502334665972806,0.5049376659443645,0.009600566375890358,0.3901291220331006,77.10042319017452,2.0388044253640243,74.00068666663259,80.0007171851558,78.00039674080172,3.7497863704422514,0.1595144848012475,5948.631979588886,95.80000610399425,0.5999816888961477,95.0000305187994,96.99996948178656,96.00000000029299,0.9999694814935793,0.024025963070365624,9178.001147552353,32.607457655538255,0.04683986733832667,32.59995727405689,32.89997253331135,32.59995727405689,0.0,0.00036570073795669065,1063.2484887308924,stress
noneeg_S01,noneeg,2026-01-01 00:15:45+00:00,2026-01-01 00:16:15+00:00,1.5980811166696864,0.254049917638225,1.2050176091780258,2.0559940183688297,1.6134918057776058,0.4544494766068303,0.009491843745902966,2.618404616108221,0.6628934007531294,0.4212971528613773,-0.019969634083050965,1.3499574266779009,0.6550090792558995,0.6975144199950142,-0.01189735184646711,0.616918951771152,-0.6793727530759008,0.3431279352231931,-1.1199755851943334,0.17996642963988396,-0.7799652089005303,0.6099600207536289,-0.011266615665148713,0.5792841175524609,-0.2332699705496241,0.26559028074207836,-1.0699682607500796,0.7799816888942668,-0.2850164799950996,0.14248672444836927,0.0021596583012898404,0.12495307638487847,77.83374991116585,2.324993932744649,75.00038148154012,82.00010681497086,78.00039674080172,5.00033570361569,0.0816402004881208,6063.498222021208,96.49998474103978,0.6707999208134584,95.0000305187994,96.99996948178656,96.99996948178656,0.9999694814935793,0.0660713984435106,9312.697027554674,32.607457655538255,0.04683986733832667,32.59995727405689,32.89997253331135,32.59995727405689,0.0,-0.00019691578197645097,1063.2484887308924,stress
noneeg_S01,noneeg,2026-01-01 00:16:00+00:00,2026-01-01 00:16:30+00:00,1.7157922254069462,0.14041381419912766,1.513990417185585,2.0559940183688297,1.7029977111090449,0.1917476729633436,-0.0031687273828713163,2.963658999984868,0.20400975638578953,0.3389441464679249,-0.019969634083050965,1.3499574266779009,0.0,0.5375286873983578,-0.010669640853147542,0.15650311512545936,-0.9786110415984008,0.10494373793091222,-1.0399951170402613,-0.5699905392630366,-1.0299923703743914,0.09002471999282957,-0.002512188639132168,0.9686927588692192,-0.18777319025237663,0.13432445877601995,-1.0699682607500796,0.10998748741110811,-0.16003265480512954,0.00998321481978759,0.0015233447603903321,0.053301831203025916,81.56718497287261,4.439984676919226,75.00038148154012,86.00074770367901,82.00010681497086,8.750122074057941,0.48121744954108625,6672.9191283301,96.5999816891891,0.4898829976029471,96.00000000029299,96.99996948178656,96.99996948178656,0.9999694814935793,-0.048051926140740296,9331.796447703015,32.60370746479758,0.03333242440518704,32.59995727405689,32.89997253331135,32.59995727405689,0.0,6.681071174205895e-05,1063.0028515006138,stress
noneeg_S01,noneeg,2026-01-01 00:16:15+00:00,2026-01-01 00:16:45+00:00,1.5617311716030622,0.0899322995318381,1.4059918820742137,1.7619651478593392,1.5414730674129036,0.1342391430400376,-0.003702249892331507,2.4470920708557573,-0.020984630115643697,0.027587323322500277,-0.1399906918544667,0.030030671101992677,-0.009959410382386742,0.039990081484379415,-0.0007970115425630413,0.001201415109190548,-1.0256151310787511,0.03028341607112705,-1.2799780266753649,-0.9799786370450416,-1.0299923703743914,0.010002746665870088,0.0001734193340068689,1.0528034823866206,-0.16527491836297709,0.015408610729683444,-0.27002014221623766,-0.12001373332925687,-0.16003265480512954,0.00998321481978759,-8.414970346181106e-05,0.027553223924507653,89.50045523463787,5.70786604961009,82.00010681497086,101.99958800035554,86.00074770367901,3.99971007416913,0.5746107625522701,8042.911222047711,96.73331095338833,0.771698908369159,96.00000000029299,97.99993896328014,96.99996948178656,0.9999694814935793,0.06317938437022885,9357.928967210088,32.607457655538255,0.04683986733832668,32.59995727405689,32.89997253331135,32.59995727405689,0.0,-0.00011955601048569957,1063.2484887308924,stress
noneeg_S01,noneeg,2026-01-01 00:16:30+00:00,2026-01-01 00:17:00+00:00,1.4256210791321977,0.08372873789941492,1.2680266121382198,1.5639875484456136,1.4274811853366078,0.14194769127452944,-0.003477174033518771,2.0394059628162813,-0.05059291550945479,0.02293104469850231,-0.1399906918544667,0.030030671101992677,-0.04994949186676616,0.01996963408305097,-0.0005025426457533766,0.0030854759107115425,-1.018238105412672,0.03056808179984281,-1.2799780266753649,-0.9799786370450416,-1.0199896237085213,0.010002746665869866,0.00023184326460470376,1.0377432469393093,-0.16515120395518873,0.015247230249906162,-0.27002014221623766,-0.12001373332925687,-0.16003265480512954,0.00998321481978759,9.338736869367867e-05,0.02750739819814201,94.70020243966297,4.180180074733043,86.00074770367901,101.99958800035554,95.00079348146383,6.248790704076342,0.2538259806079834,8985.602247570341,97.29996032623465,0.5859286454953635,96.00000000029299,97.99993896328014,96.99996948178656,0.9999694814935793,0.010010817945984685,9467.625591864447,32.60370746479758,0.03333242440518704,32.59995727405689,32.89997253331135,32.59995727405689,0.0,-0.0001863667222279298,1063.0028515006138,stress
noneeg_S01,noneeg,2026-01-01 00:16:45+00:00,2026-01-01 00:17:15+00:00,1.3269363826389333,0.06920650537792584,1.1880233161393252,1.460996612443094,1.3370289620633382,0.09896908474974131,-0.0014209654705720168,1.765549703957523,-0.0703415116579987,0.016621386307143028,-0.0999497970518098,-0.019969634083050965,-0.06996993926809461,0.020020447401328446,-0.00045577676431384184,0.00522419874510365,-1.0117373577091786,0.007208747110974196,-1.0399951170402613,-0.9899813837109116,-1.0099868770426514,0.010002746665869866,0.00010176258914645065,1.0236644470192604,-0.1640264786217741,0.008744420779648905,-0.20000854518264105,-0.13003997924740562,-0.16003265480512954,0.00998321481978759,-8.949429499173537e-05,0.02698115058383087,93.66681213844292,5.152952200646307,81.00041200006333,99.99926755600147,95.50064088891759,3.7488555559032335,-0.41200067229078047,8800.0246125605,96.4999847410398,0.9573978885110027,95.0000305187994,97.99993896328014,96.49998474103978,0.9999694814935793,-0.10566974498541906,9313.163665737833,32.5999572740569,7.105427357601002e-15,32.59995727405689,32.59995727405689,32.59995727405689,0.0,-1.2036819633179454e-17,1062.757214270335,stress
noneeg_S01,noneeg,2026-01-01 00:17:00+00:00,2026-01-01 00:17:30+00:00,1.3131009186050193,0.10214433918794515,1.1880233161393252,1.6149704275617154,1.280525894953227,0.11699841303731873,0.0015432088339799868,1.7346674884694875,-0.10109690771192399,0.02469952868300465,-0.1399906918544667,-0.019969634083050965,-0.0999497970518098,0.03999008148437942,-0.0008632630094151726,0.010830651466075846,-1.0047354350430695,0.0074140193644086395,-1.0399951170402613,-0.9899813837109116,-0.9999841303767815,0.010002746665869977,0.0001709330126446103,1.0095482621143226,-0.1665244338816391,0.008672367141743733,-0.20000854518264105,-0.13003997924740562,-0.17001586962491713,0.00998321481978759,-5.292088748168649e-05,0.02780559703144157,85.93360494826439,7.265814331909658,79.00009155570925,99.99926755600147,82.50041962969414,12.249752037138549,-0.7025332569447492,7437.376517310152,95.3333536792973,0.4713901342291372,95.0000305187994,96.00000000029299,95.0000305187994,0.9999694814935793,-0.04449252420438822,9088.670532400629,32.60370746479758,0.03333242440518704,32.59995727405689,32.89997253331135,32.59995727405689,0.0,3.5163532495617603e-06,1063.0028515006138,stress
noneeg_S01,noneeg,2026-01-01 00:17:15+00:00,2026-01-01 00:17:45+00:00,1.327910794394662,0.09855736757959598,1.2190152287342642,1.6149704275617154,1.2970273140638908,0.11496777245380807,5.490241223704906e-06,1.7730606325740816,-0.1259757435070583,0.008753628692809004,-0.14995010223685346,-0.0999497970518098,-0.1299804681538025,0.010010223700664234,-0.0002482199628650311,0.015946513967447715,-1.0001091647101048,0.0011113294634175956,-1.0099868770426514,-0.9999841303767815,-0.9999841303767815,0.0,-6.682566337959644e-06,1.0002195763903203,-0.16677293847467473,0.005420472064335519,-0.18004211554306587,-0.16003265480512954,-0.17001586962491713,0.00998321481978759,4.7618156959309086e-05,0.027842594524877883,79.46705018278429,1.8391864949300267,76.00007629644765,83.00073244441741,79.50040437043253,2.500167851807859,-0.09255216314300008,6318.394671716292,95.06669515089901,0.24943621313193065,95.0000305187994,96.00000000029299,95.0000305187994,0.0,0.00800865435678706,9037.73874533838,32.607457655538255,0.04683986733832668,32.59995727405689,32.89997253331135,32.59995727405689,0.0,-0.0002461447274707634,1063.2484887308924,stress
noneeg_S01,noneeg,2026-01-01 00:17:30+00:00,2026-01-01 00:18:00+00:00,1.264389695423238,0.08534900138954611,1.1350295113968343,1.4649790337816293,1.2575185399924802,0.13149876400015414,-0.0035678180085503344,1.6059657539306613,-0.13223149815349497,0.0075835298382653845,-0.14995010223685346,-0.10996002075247402,-0.1299804681538025,0.010010223700664206,-0.00014689289380998845,0.01754267902872561,-1.0001091647101048,0.0011113294634175956,-1.0099868770426514,-0.9999841303767815,-0.9999841303767815,0.0,2.6964741363649858e-06,1.0002195763903203,-0.16527438047424758,0.005690063876417622,-0.18004211554306587,-0.1500064088869808,-0.17001586962491713,0.00998321481978759,6.203448273937547e-05,0.027347997668064054,78.40036774821866,1.4282799397536996,76.00007629644765,82.00010681497086,78.00039674080172,1.7494659260881775,-0.04449914729801385,6148.657646642222,95.36668599534703,0.48187970312905837,95.0000305187994,96.00000000029299,95.0000305187994,0.9999694814935793,0.03670633246861551,9095.03700578341,32.60370746479758,0.03333242440518704,32.59995727405689,32.89997253331135,32.59995727405689,0.0,-0.0002496610807205252,1063.0028515006138,stress
noneeg_S01,noneeg,2026-01-01 00:17:45+00:00,2026-01-01 00:18:15+00:00,1.1385949613922508,0.07573827590259762,1.0330243232503877,1.293025177768234,1.131520249029214,0.11873332926400737,-0.003225720061190355,1.3021347725445191,-0.1353584227269956,0.006699020812255961,-0.14995010223685346,-0.11997024445313825,-0.1399906918544667,0.010010223700664206,-1.442628936516108e-05,0.018366779482983084,-0.9996090273768115,0.0019003573405342266,-0.9999841303767815,-0.9899813837109116,-0.9999841303767815,0.0,2.3095887168027723e-05,0.9992218189712367,-0.16277696310311213,0.005908660955725627,-0.18004211554306587,-0.1500064088869808,-0.16003265480512954,0.00998321481978759,9.555405409639095e-05,0.026531251991361637,79.50040437043252,1.8574604390517073,77.00070192589419,84.00042725932494,79.00009155570925,1.7503967406272096,0.11323695368541657,6323.764454344927,96.06666463239254,0.6798485198844026,95.0000305187994,96.99996948178656,96.00000000029299,0.7499771111201738,0.0694083377588416,9229.266247602574,32.58745784627896,0.048410075621069366,32.39996642960991,32.59995727405689,32.59995727405689,0.0,-0.0005602181413834006,1061.9447524184295,stress
noneeg_S01,noneeg,2026-01-01 00:18:00+00:00,2026-01-01 00:18:30+00:00,1.1787523575529577,0.1280354415635432,1.0330243232503877,1.4649790337816293,1.1195335550993648,0.19574980925900043,0.00353120392257139,1.4058501947330266,-0.13673355815288002,0.006665395261541812,-0.14995010223685346,-0.11997024445313825,-0.1399906918544667,0.010010223700664206,-1.8797116168237396e-05,0.018740493419139605,-0.9993589587101646,0.00242127945332786,-0.9999841303767815,-0.9899813837109116,-0.9999841303767815,0.0,2.2275221126508034e-06,0.9987241909484558,-0.16015314188054078,0.004609805703747857,-0.17001586962491713,-0.1500064088869808,-0.16003265480512954,0.0,3.479406251452414e-05,0.02567027916283493,80.50053356545828,1.2845781237739928,79.00009155570925,84.00042725932494,80.0007171851558,0.999694814907528,-0.023351952113628713,6481.986045279554,96.53331705708958,0.49887242626386125,96.00000000029299,96.99996948178656,96.99996948178656,0.9999694814935793,0.023136112586279883,9318.930175742264,32.55995910516749,0.07999633777879182,32.39996642960991,32.59995727405689,32.59995727405689,0.0,-0.0008625952971926641,1060.1573363442378,stress
noneeg_S01,noneeg,2026-01-01 00:18:15+00:00,2026-01-01 00:18:45+00:00,1.2350518677307896,0.08929644420341042,1.0330243232503877,1.4649790337816293,1.2125092928841816,0.08475460066516693,-0.002035617385508764,1.533326970932685,-0.13335447248742738,0.010837512957726723,-0.14995010223685346,-0.0999497970518098,-0.1399906918544667,0.010010223700664206,0.0002427092311020015,0.017900867019508916,-0.9992339243768411,0.005427123843816835,-1.0199896237085213,-0.9699758903791716,-0.9999841303767815,0.0,-2.579236130439735e-06,0.9984978892987592,-0.15740237891780404,0.007204408232215174,-0.17001586962491713,-0.13003997924740562,-0.16003265480512954,0.0,7.237919509855949e-05,0.024827412386960377,81.00050508151726,0.9659896643274859,80.0007171851558,83.00073244441741,81.00041200006333,1.7494659260881775,0.07161763681991808,6562.014959492488,96.46665242498996,0.4988724262638612,96.00000000029299,96.99996948178656,96.00000000029299,0.9999694814935793,-0.006228953388616696,9306.06390378151,32.49621238590733,0.10890428931547246,32.39996642960991,32.89997253331135,32.39996642960991,0.19999084444697957,-0.0019466725960978828,1056.0156795742278,stress
noneeg_S01,noneeg,2026-01-01 00:18:30+00:00,2026-01-01 00:19:00+00:00,1.2110661580228905,0.06579906962744476,1.1280109866615937,1.428979522077839,1.1880233161393252,0.06399475081626704,-4.182473158476991e-05,1.4710107566721622,-0.10984886661874205,0.02321120188453708,-0.14995010223685346,-0.04994949186676616,-0.10996002075247402,0.03999008148437942,0.0008269188609402132,0.012605533390346915,-1.0019846797099556,0.0074853701900761335,-1.0199896237085213,-0.9699758903791716,-0.9999841303767815,0.010002746665869977,-0.00013365132675915604,1.0040293291403444,-0.15889986114077218,0.010726641238708515,-0.20000854518264105,-0.13003997924740562,-0.16003265480512954,0.01002624591814874,-0.00019136633513090886,0.025364226702820646,81.8670313630423,0.9568767872414126,80.0007171851558,84.00042725932494,82.00010681497086,0.999694814907528,0.009343969842978944,6703.126437383313,96.46665242498999,0.4988724262638613,96.00000000029299,96.99996948178656,96.00000000029299,0.9999694814935793,0.007118803872699311,9306.063903781514,32.43871501812881,0.09012784301868962,32.39996642960991,32.89997253331135,32.39996642960991,0.0,-0.00020978914170862896,1052.2783550554632,stress
noneeg_S01,noneeg,2026-01-01 00:18:45+00:00,2026-01-01 00:19:15+00:00,1.1693429013928116,0.08806164185439122,1.0610195623628644,1.428979522077839,1.1430140690310266,0.09546967986068178,-0.0032821812767646684,1.3751176738038497,-0.14184410763863792,0.07864250841851013,-0.349951322977028,-0.04994949186676616,-0.1049549089021419,0.0699699392680946,-0.002705336322341715,0.026304395002156932,-0.9903564867108816,0.027184833517133727,-1.0199896237085213,-0.919962157049822,-0.9999841303767815,0.020005493331739843,0.0008238314676637078,0.9815449859436749,-0.15339725943783972,0.03166222062171068,-0.2200180059205774,-0.040018921475872674,-0.16003265480512954,0.02000946073793633,0.0005915858108589472,0.02453321541773778,82.86706747661414,1.2840950890667644,80.0007171851558,85.00012207423246,83.00073244441741,2.000320444354074,0.08365610249865774,6868.599772371486,96.39998779289041,0.4898829976029471,96.00000000029299,96.99996948178656,96.00000000029299,0.9999694814935793,-0.0008898504840911657,9293.197631820765,32.4199655140546,0.059997253334093864,32.39996642960991,32.59995727405689,32.39996642960991,0.0,-0.0005250580069869592,1051.057763602898,stress
noneeg_S01,noneeg,2026-01-01 00:19:00+00:00,2026-01-01 00:19:30+00:00,1.2093115268390804,0.1435706005249815,1.0610195623628644,1.5669842219280758,1.1280109866615937,0.17373805963288746,0.004970096324735035,1.4830468862809716,-0.1719694185459224,0.08827910841419229,-0.349951322977028,0.030030671101992677,-0.15996032593751766,0.06750549333163668,0.0005755489726137483,0.03736668189742735,-0.9793550218224081,0.0403595434553456,-1.0499978637061311,-0.7899679555664003,-0.9899813837109116,0.03500961333054475,-8.055856341019729e-05,0.9607651515166932,-0.14264809106722356,0.04137497504201662,-0.2200180059205774,-0.010026245918148746,-0.16003265480512954,0.05998535111544785,4.3625222058638475e-05,0.022060366444850408,81.56709189141871,2.812820665040226,76.00007629644765,85.00012207423246,82.50041962969414,5.499950407434696,-0.2863164814249496,6661.102439716825,96.3999877928904,0.48988299760294707,96.00000000029299,96.99996948178656,96.00000000029299,0.9999694814935793,0.00088985048408432,9293.197631820762,32.404966200721084,0.03122356058173482,32.39996642960991,32.59995727405689,32.39996642960991,0.0,-0.00036566539772303256,1050.0828093806117,stress
noneeg_S01,noneeg,2026-01-01 00:19:15+00:00,2026-01-01 00:19:45+00:00,1.392283086639805,0.1479251475581736,1.0860181279928787,1.7229689626730864,1.4039809564478245,0.2034682149720528,0.0041449047502658525,1.9603340426233697,-0.09834790719311214,0.08388128427804256,-0.3399919125946413,0.030030671101992677,-0.06996993926809461,0.11246257667764009,0.002754673838899886,0.016708380701398788,-0.9962341380064025,0.0377987082524235,-1.0599591051991137,-0.7899679555664003,-1.0099868770426514,0.012503433332337388,-0.0007445858726269763,0.9939112000749116,-0.1639006126590677,0.04026461917727184,-0.24002746665851374,-0.010026245918148746,-0.18004211554306587,0.05000213629566025,-0.001302270222987209,0.028484650387508477,80.63379518029464,2.4829739883789435,76.00007629644765,85.00012207423246,81.00041200006333,3.499629963080622,0.10746010536616264,6507.974085004675,96.26665852869125,0.44220314292272533,96.00000000029299,96.99996948178656,96.00000000029299,0.7499771111201738,-0.03915342129986112,9267.46508789926,32.399966429609904,7.105427357601002e-15,32.39996642960991,32.39996642960991,32.39996642960991,0.0,1.7152387795571064e-16,1049.7578246398496,stress
noneeg_S01,noneeg,2026-01-01 00:19:30+00:00,2026-01-01 00:20:00+00:00,1.440695135347268,0.10423817210929369,1.30402612384201,1.7229689626730864,1.4139961546655275,0.1397100436412435,-0.0006477467932626415,2.086468069537969,-0.08372383419285243,0.07392938572453077,-0.3199714651933128,0.06001052888570787,-0.0649648274177625,0.1100108340707515,-0.0008812787487247582,0.012475234485558699,-1.0087344584507734,0.029043631213597754,-1.169989318523683,-0.9499703970474318,-1.0099868770426514,0.020005493331739843,-0.00011086823642853549,1.0183887401800462,-0.17614941480757002,0.04739645524451149,-0.26003692739645007,0.08997802667317178,-0.18004211554306587,0.06002838221380899,0.0002566427763825378,0.03327504030679436,81.93386384694394,1.611002255419649,80.0007171851558,85.00012207423246,81.00041200006333,2.000320444354074,0.044938152152897405,6715.753373156515,96.09999694844232,0.29999084444807383,96.00000000029299,96.99996948178656,96.00000000029299,0.0,0.006006490767588822,9235.29940799738,32.4024663151655,0.02221946883909843,32.39996642960991,32.59995727405689,32.39996642960991,0.0,0.00016173661822352803,1049.9203170102307,stress
noneeg_S01,noneeg,2026-01-01 00:19:45+00:00,2026-01-01 00:20:15+00:00,1.3733927075999477,0.08018977470760691,1.250007141329203,1.6059804071143284,1.3600166020669633,0.09896908474974131,-0.0016156453575190252,1.892637929256372,-0.0503483764152444,0.1931604850312457,-0.37998199407902067,0.5100132755511007,-0.04994949186676616,0.1399906918544667,0.004278660067453121,0.039845931985157235,-1.0073590807842163,0.09561192822538153,-1.5799774163056879,-0.7199902340781982,-1.0099868770426514,0.03000823999760971,-0.00014314274059187105,1.0239139584573966,-0.14677262184514012,0.11102847715257373,-0.27002014221623766,0.3099960325937492,-0.19002533036285346,0.07001159703359658,0.0013996364047958781,0.03386952526211608,83.40042420747262,2.4026937108340665,80.0007171851558,89.00076296294061,83.00073244441741,3.99971007416913,0.16194060785778727,6961.403695054466,96.46665242498999,0.4988724262638613,96.00000000029299,96.99996948178656,96.00000000029299,0.9999694814935793,0.03247954266919944,9306.063903781514,32.399966429609904,0.03162132898164408,32.19997558516294,32.59995727405689,32.39996642960991,0.0,-0.00015470459134430092,1049.7588245482962,stress
noneeg_S01,noneeg,2026-01-01 00:20:00+00:00,2026-01-01 00:20:30+00:00,1.2839020813602773,0.07812514129852385,1.1480019531827566,1.428979522077839,1.2770166325856067,0.12676717429100348,-0.0030870803788955506,1.6545080922241666,0.2581500766774911,0.2934851898393415,-0.37998199407902067,0.5500033570354801,0.440043336283006,0.5424956892599819,0.010636427572161858,0.15277501874362892,-0.9941069978959218,0.09357675973727252,-1.5799774163056879,-0.7199902340781982,-0.9999841303767815,0.0400109866634798,0.0005853834710818286,0.9970053332285694,-0.19189718314156362,0.11942760155497902,-0.3000128177739616,0.3099960325937492,-0.23501434369943935,0.052508697775197455,-0.0016039857044604588,0.05108748091084166,83.43365428651563,2.8246643694192723,78.00039674080172,89.00076296294061,85.00012207423246,3.99971007416913,-0.18131583863496942,6969.1533964016735,96.73331095338828,0.4422031429227255,96.00000000029299,96.99996948178656,96.99996948178656,0.7499771111201881,0.012457906777224725,9357.528991624518,32.392466772943145,0.0379949709794427,32.19997558516294,32.39996642960991,32.39996642960991,0.0,-0.00018048868990180487,1049.2733472540463,stress
noneeg_S01,noneeg,2026-01-01 00:20:15+00:00,2026-01-01 00:20:45+00:00,1.1645058366630607,0.08379204815941488,1.0510043641451614,1.3709781182264964,1.1565188146592282,0.12323819696626148,-0.003282953053098305,1.3630949509570849,0.5137766369360268,0.03992263751898035,0.3100120548109261,0.5500033570354801,0.5300337229524291,0.04004089480265682,0.001082296879037046,0.2655602496477657,-0.9753523667120769,0.01440393349148682,-1.0299923703743914,-0.9599731437133018,-0.9699758903791716,0.010002746665869977,0.0003834855173940502,0.9515197125508765,-0.25639972380747356,0.012478716144139505,-0.3000128177739616,-0.2200180059205774,-0.26003692739645007,0.010026245918148768,-4.2453113847302864e-05,0.06589653672515475,81.36696676552944,2.152251689932353,78.00039674080172,85.00012207423246,81.00041200006333,3.500328073984889,-0.11012519615975597,6625.215467959587,96.73331095338827,0.44220314292272545,96.00000000029299,96.99996948178656,96.99996948178656,0.7499771111201881,-0.007118803872704838,9357.528991624516,32.39496665849873,0.031223560581733707,32.19997558516294,32.39996642960991,32.39996642960991,0.0,0.00013595251966630188,1049.4348397159806,stress
noneeg_S01,noneeg,2026-01-01 00:20:30+00:00,2026-01-01 00:21:00+00:00,1.0809691274740723,0.04319787209900447,1.0020324106554488,1.1650356761357001,1.0800247810279542,0.06778002258358784,-0.0012703567851246557,1.1703603107059388,0.5108980624556073,0.036582142066907894,0.37002258369663393,0.5500033570354801,0.5200234992517648,0.030030671101992645,-0.001060215836040604,0.26235508333909713,-0.9758530228600314,0.022734478434454766,-1.0499978637061311,-0.8199761955640101,-0.9699758903791716,0.010002746665869977,-0.0002754256419955211,0.9528059787347475,-0.24939963988157293,0.02456583409423187,-0.290029602954174,-0.09002105777153294,-0.2500106814783013,0.010026245918148768,0.0004104053179983354,0.0628036605778036,81.03361105195505,1.1684823120142733,78.00039674080172,82.00010681497086,81.00041200006333,0.999694814907528,0.05006187721162424,6567.811471033023,96.49998474103977,0.49998474074678967,96.00000000029299,96.99996948178656,96.49998474103978,0.9999694814935793,-0.03047737908000727,9312.497039761887,32.399966429609904,7.105427357601002e-15,32.39996642960991,32.39996642960991,32.39996642960991,0.0,1.7152387795571064e-16,1049.7578246398496,stress
noneeg_S01,noneeg,2026-01-01 00:20:45+00:00,2026-01-01 00:21:15+00:00,1.0143217291771125,0.06423578530848836,0.9150105899213137,1.1650356761357001,1.0060148319939841,0.09323203222739573,-0.002723161495520467,1.0329748063950455,0.428142221975941,0.06818958970301557,0.34004272591291873,0.5300337229524291,0.38003280739729817,0.12998046815380254,-0.002637931252612139,0.18795558238236149,-1.0017351298579698,0.028977751371194117,-1.0499978637061311,-0.8199761955640101,-1.0199896237085213,0.040010986663479686,-0.0007700138718299634,1.0043129804660944,-0.21677184743795785,0.033643608289448436,-0.27002014221623766,-0.09002105777153294,-0.20000854518264105,0.05998535111544784,0.001048994988139566,0.04812192622039912,81.8670313630423,2.940929538903202,77.00070192589419,87.00044251858654,82.00010681497086,3.499629963080608,0.13305222470628877,6710.859890750143,96.1666615805419,0.45336851373901305,95.0000305187994,96.99996948178656,96.00000000029299,0.0,-0.010010817945988798,9248.232342555724,32.40746608627667,0.03799497097944405,32.39996642960991,32.59995727405689,32.39996642960991,0.0,0.00044770571131470257,1050.245301750993,stress
noneeg_S01,noneeg,2026-01-01 00:21:00+00:00,2026-01-01 00:21:30+00:00,0.9184957014664603,0.05223884598895199,0.8320106204399569,1.014019104585298,0.9150105899213137,0.08650923184897708,-0.0022538627926980996,0.8463632506426222,0.35215153965844304,0.017076341612529706,0.3200222785115903,0.38003280739729817,0.3500021362953055,0.029979857783715202,-0.0006837261915378433,0.12430230832667984,-1.0229904477082823,0.005340005444336989,-1.0399951170402613,-1.0099868770426514,-1.0199896237085213,0.010002746665870088,-8.863193248239357e-05,1.0465379717605376,-0.19626699118013874,0.006194168921048362,-0.2100347911007898,-0.18004211554306587,-0.20000854518264105,0.00998321481978759,-0.00020279691193889486,0.038559099555527145,84.7337850074675,3.846552400539206,77.00070192589419,89.00076296294061,86.00074770367901,3.000015259261602,0.3234757574580935,7194.610287061822,95.5666798916458,0.6155207250741453,95.0000305187994,96.99996948178656,95.50001525954619,0.9999694814935793,-0.05183379069811079,9133.369171275286,32.47246311072195,0.09614002133835269,32.39996642960991,32.59995727405689,32.39996642960991,0.19999084444697957,0.002730770438124029,1054.4701033809004,stress
noneeg_S01,noneeg,2026-01-01 00:21:15+00:00,2026-01-01 00:21:45+00:00,0.8334710058887292,0.04579980175905236,0.7610367748026923,0.9150105899213137,0.8295068208855312,0.07649403363127427,-0.001979288804549875,0.6967715394983387,0.335908427304567,0.007854411221965308,0.3200222785115903,0.37002258369663393,0.33003250221225455,0.010010223700664178,-8.61080871602577e-05,0.11289616330987133,-1.024865962708133,0.005243994198359058,-1.0399951170402613,-1.0199896237085213,-1.0199896237085213,0.010002746665870088,1.582713080042419e-05,1.0503777409928206,-0.20439341410564255,0.006686344540009385,-0.230001220740365,-0.19002533036285346,-0.20000854518264105,0.01002624591814874,-0.00020832256493519914,0.04182137493306841,86.53382519017578,1.3098804635952614,85.00012207423246,89.00076296294061,86.00074770367901,0.999694814907528,-0.06183901075504829,7489.818688872811,95.4333506274466,0.4955205019034663,95.0000305187994,96.00000000029299,95.0000305187994,0.9999694814935793,0.04560483730949294,9107.769952548972,32.55995910516749,0.07999633777879182,32.39996642960991,32.59995727405689,32.59995727405689,0.0,0.0014626615908922167,1060.1573363442378,stress
noneeg_S01,noneeg,2026-01-01 00:21:30+00:00,2026-01-01 00:22:00+00:00,0.7786604678474955,0.025870308569440403,0.7310306100638264,0.8270030213311055,0.779016815697466,0.04199285866871494,-0.0009698829999309981,0.6069813970539586,0.3140326586196319,0.05974568800024556,0.1100108340707515,0.37002258369663393,0.33003250221225455,0.010010223700664178,-0.0013247792011579886,0.10218605791433699,-1.02598971526406,0.009430964546836193,-1.0599591051991137,-0.9999841303767815,-1.0199896237085213,0.010002746665870088,-0.00010775826725050223,1.0527438389199106,-0.20602214117861228,0.02973426361389958,-0.230001220740365,0.0,-0.2100347911007898,0.012489776299324795,0.0002544160733906886,0.0433292490884809,85.90046795067525,1.5133663754112092,84.00042725932494,90.00045777784814,86.00074770367901,1.0006256294465459,-0.027811785868217358,7381.180671931213,95.90000305214359,0.2999908444480738,95.0000305187994,96.00000000029299,96.00000000029299,0.0,0.01801947230277532,9196.90057990791,32.59495750294572,0.03122356058173482,32.39996642960991,32.59995727405689,32.59995727405689,0.0,0.00011720044798815513,1062.4322295295729,stress
noneeg_S01,noneeg,2026-01-01 00:21:45+00:00,2026-01-01 00:22:15+00:00,0.8317045457306461,0.26178493666755936,0.6990135196985715,1.7509642017855631,0.7490106509586002,0.054994872890319346,0.005049933582529646,0.7602638044550586,0.2825271309546353,0.17319639099528764,-0.10996002075247402,0.8700256355470704,0.33003250221225455,0.1900418103577878,0.00018356519674311622,0.10981856957925022,-0.8357424542999604,0.3271267003904748,-1.0599591051991137,0.38998260445026517,-1.0199896237085213,0.4200323496207624,0.010308324852767952,0.8054773280276809,-0.2985131839960754,0.4439019460468423,-1.319978942228381,0.7499890133365428,-0.2200180059205774,0.05000213629566028,-0.00323124209432157,0.2861590587236485,83.80039521488955,2.8331859826477794,79.00009155570925,90.00045777784814,84.00042725932494,4.500255592527168,-0.23492992777147587,7030.533180983954,96.00000000029296,2.842170943040401e-14,96.00000000029299,96.00000000029299,96.00000000029299,0.0,-1.489473013244151e-15,9216.000000056254,32.607457655538255,0.04683986733832667,32.59995727405689,32.89997253331135,32.59995727405689,0.0,0.0005204202809386102,1063.2484887308924,stress
noneeg_S01,noneeg,2026-01-01 00:22:00+00:00,2026-01-01 00:22:30+00:00,1.2051718787175012,0.4016674918514408,0.6990135196985715,1.7509642017855631,1.4024826197065934,0.8199549241601827,0.0131782190771205,1.613776031261699,0.4903986995295136,0.2868992845223105,-0.10996002075247402,1.1599664296383905,0.5700238044368084,0.5600135807361443,0.009627030414453407,0.3228020839596518,-0.6491211890022386,0.46310575867308285,-1.0599591051991137,0.7999707022322702,-0.8799926755592297,0.4549589526055324,-0.0005732364461521724,0.6358252617278517,-0.17588531144137848,0.5145190745674857,-1.319978942228381,0.7499890133365428,-0.0700115970335966,0.11003051850946927,0.0065582490608257354,0.29566552087461273,83.6338104395562,2.428880945906992,79.00009155570925,86.00074770367901,85.00012207423246,4.750411999888797,0.22270840535135517,7000.513711289019,96.00000000029296,2.842170943040401e-14,96.00000000029299,96.00000000029299,96.00000000029299,0.0,-1.489473013244151e-15,9216.000000056254,32.73871433146208,0.14958513820248498,32.59995727405689,32.89997253331135,32.59995727405689,0.30001525925445804,0.0054538638901039235,1071.8457917906514,non_stress
noneeg_S01,noneeg,2026-01-01 00:22:15+00:00,2026-01-01 00:22:45+00:00,1.3760147968971022,0.1561872453592203,1.1380261848792965,1.685983703113223,1.367508285773119,0.259714987639585,-0.006730750598938143,1.9178111768926744,0.7177781361575962,0.08767683157236747,0.37002258369663393,1.1599664296383905,0.7300349436926037,0.010010223700664289,0.0004516697713128917,0.522892679540442,-0.7694939725956935,0.39692467889281163,-1.0599591051991137,0.7999707022322702,-0.8799926755592297,0.010002746665869977,-0.007945938170257386,0.7496701745752636,-0.014013615070039126,0.18261657391065567,-0.12001373332925687,0.6499847407452223,-0.0700115970335966,0.0,-0.003778272158315546,0.0335451944741972,86.3671783605399,1.3033371257854849,83.00073244441741,91.00015259275567,86.00074770367901,0.999694814907528,0.11412386773894628,7460.988185624761,96.43332010894022,0.49552050190346636,96.00000000029299,96.99996948178656,96.00000000029299,0.9999694814935793,0.049164239245845114,9299.630767801138,32.87372119812658,0.08477422091797768,32.59995727405689,32.89997253331135,32.89997253331135,0.0,0.0009810625566340446,1080.6887320806893,non_stress
noneeg_S01,noneeg,2026-01-01 00:22:30+00:00,2026-01-01 00:23:00+00:00,1.1478590197436258,0.10774867523212557,0.9960390636905242,1.3640384533197416,1.1380261848792965,0.18700622577563175,-0.00462563729636394,1.3291901062210758,0.6769064436011025,0.05081000059541322,0.6100138859211879,0.7900454725783115,0.6500039674055673,0.10000061037008734,-0.0019061658688696718,0.4607839895491984,-0.9129799493408346,0.028728000357708422,-0.9499703970474318,-0.8699899288933598,-0.919962157049822,0.05997497482233216,-0.001110172892294266,0.8343576859029455,-0.059884228034299145,0.010669202890960407,-0.08003784295174535,-0.020009460737936337,-0.06002838221380901,0.020009460737936344,0.0003617123922789755,0.0036999526575924174,90.1004582864902,3.0149471515699005,86.00074770367901,93.00047303710974,92.0003128149327,6.000030518523204,0.30367104740306766,8127.18248976232,96.89997253363721,0.29999084444807383,96.00000000029299,96.99996948178656,96.99996948178656,0.0,0.006006490767591356,9389.694671526397,32.89247215182999,0.046839867338326666,32.59995727405689,32.89997253331135,32.89997253331135,0.0,0.0002672428469683982,1081.9169182320834,non_stress
noneeg_S01,noneeg,2026-01-01 00:22:45+00:00,2026-01-01 00:23:15+00:00,0.9928196111925895,0.07397569125143658,0.8670243842876741,1.1380261848792965,0.998030274359792,0.116002807702685,-0.003180527242228606,0.9911631832647322,0.6234019249543478,0.007579109093269116,0.6100138859211879,0.6500039674055673,0.6200241096218522,0.010010223700664178,-0.00021618648946851029,0.388687402931434,-0.9444688863812033,0.005455854186680383,-0.9499703970474318,-0.929964903715692,-0.9399676503815618,0.010002746665869977,-0.0001683537765141783,0.8920512436870567,-0.05075464262825093,0.0049476220224532385,-0.0700115970335966,-0.020009460737936337,-0.05000213629566026,0.0,-2.0853338302140284e-05,0.0026005127119985306,93.90038453343432,2.1807338731165955,93.00047303710974,100.99989318544802,93.00047303710974,0.0,0.15460011535963974,8822.037815752188,96.63331400523892,0.48187970312905837,96.00000000029299,96.99996948178656,96.99996948178656,0.9999694814935793,-0.022023799481173778,9338.229583683393,32.899972533311356,7.105427357601002e-15,32.89997253331135,32.89997253331135,32.89997253331135,0.0,-3.8544895636618565e-17,1082.4081926926413,non_stress
noneeg_S01,noneeg,2026-01-01 00:23:00+00:00,2026-01-01 00:23:30+00:00,0.876229790641613,0.06423974005741628,0.7770058900710768,1.0060148319939841,0.8645205847332484,0.10399639881571432,-0.0027632998727091804,0.7719053902104894,0.639772705770396,0.024544375358210208,0.5900442518381369,0.6800346385075601,0.6200241096218522,0.04249263740954545,0.0008595336024876833,0.40991154141049846,-0.9355919675299049,0.01439396429902278,-0.9499703970474318,-0.8999981688909696,-0.9399676503815618,0.03000823999760982,0.0004967340258682629,0.87553951591472,-0.05138074510940571,0.012525014949687018,-0.12001373332925687,0.019966429639575182,-0.05000213629566026,0.0,-3.85827358723632e-07,0.002796856967487602,90.70039928403989,5.514275257660938,83.00073244441741,100.99989318544802,93.00047303710974,8.750122074057927,-0.45805621604602464,8256.969661901523,96.29999084474107,0.8225724075027544,94.00006103730583,97.99993896328014,96.00000000029299,0.9999694814935793,-0.01935424802891061,9274.364862062797,32.90497230442253,0.031223560581734817,32.89997253331135,33.09996337775833,32.89997253331135,0.0,6.563225087349774e-05,1082.7381772655488,non_stress
noneeg_S01,noneeg,2026-01-01 00:23:15+00:00,2026-01-01 00:23:45+00:00,0.7799803842267774,0.04788659876164432,0.7040211188074229,0.8620167851788227,0.7770058900710768,0.0819945066681621,-0.0020701208711789197,0.61066252611951,0.6719019669172488,0.018583353260199078,0.5900442518381369,0.700004272590611,0.6700244148068958,0.030030671101992645,0.0005895619422076456,0.451797594165661,-0.9173390301233365,0.009966137467845764,-0.9499703970474318,-0.8999981688909696,-0.919962157049822,0.010002746665869866,0.0003144527634215249,0.8416102200836519,-0.05275881603442165,0.012941836842897124,-0.12001373332925687,0.019966429639575182,-0.05000213629566026,0.010026245918148748,-5.069973233421188e-05,0.0029509838102221167,86.10049999511065,3.399382257115525,83.00073244441741,96.99925229673987,84.5002746667787,3.7497863704422514,-0.11456515044921964,7424.851899138043,95.40001831139688,1.1999633777922951,94.00006103730583,97.99993896328014,95.0000305187994,2.4999237037339412,-0.10144295518600421,9102.603405922893,32.90497230442253,0.031223560581734817,32.89997253331135,33.09996337775833,32.89997253331135,0.0,-0.0003094091826885435,1082.7381772655488,non_stress
noneeg_S01,noneeg,2026-01-01 00:23:30+00:00,2026-01-01 00:24:00+00:00,0.702983126314978,0.041191552547068425,0.6340330210262314,0.7770058900710768,0.7015173192529972,0.06675484481327176,-0.001780389103409819,0.49588201988481817,0.6872850638592785,0.009615017792327301,0.6600141911062316,0.700004272590611,0.6900448622082243,0.0,0.00025501293881759993,0.4724532075711993,-0.9089684743812647,0.006029279532925544,-0.929964903715692,-0.8999981688909696,-0.9099594103839521,0.0,0.00013718014209115138,0.8262600396306901,-0.05388676870021338,0.005599005608830427,-0.0700115970335966,-0.040018921475872674,-0.05000213629566026,0.010026245918148748,3.5455769043470934e-06,0.0029351327047580115,82.73383688892905,3.8638040201789927,77.00070192589419,89.00076296294061,84.00042725932494,7.000656147969764,-0.3185738126821948,6859.816747870269,94.43336588669831,0.9195366709294098,93.00000000028383,96.00000000029299,94.00006103730583,0.9999694814935793,-0.028255095224798455,8918.506140380221,32.899972533311356,7.105427357601002e-15,32.89997253331135,32.89997253331135,32.89997253331135,0.0,-3.8544895636618565e-17,1082.4081926926413,non_stress
noneeg_S01,noneeg,2026-01-01 00:23:45+00:00,2026-01-01 00:24:15+00:00,0.6436465269925844,0.028163708888581346,0.6050126041434386,0.6990135196985715,0.6380154423647668,0.05102230903034477,-0.0011440299392711886,0.41507404620797655,0.5549087477486927,0.15330276795112485,0.3600123599959697,0.700004272590611,0.6900448622082243,0.3100120548109261,-0.005688750494310332,0.33142545698949866,-0.95785482345206,0.05746918874443091,-1.0299923703743914,-0.8999981688909696,-0.9099594103839521,0.11003021332456919,-0.002151604909468942,0.9207885704653196,-0.054767830439158005,0.008064286440123712,-0.0700115970335966,-0.010026245918148746,-0.06002838221380901,0.010026245918148748,-8.037313449171849e-05,0.003064547966800725,80.06714631609053,2.4349074137751177,77.00070192589419,87.00044251858654,80.0007171851558,3.000015259261616,-0.06985747584513463,6416.676693315907,95.10001220769401,1.1930257946592226,93.00000000028383,96.99996948178656,96.00000000029299,1.9999389629871587,0.04916495213649878,9045.435632450275,32.90247241886694,0.02221946883909843,32.89997253331135,33.09996337775833,32.89997253331135,0.0,9.610436735031138e-05,1082.573184979095,non_stress
noneeg_S01,noneeg,2026-01-01 00:24:00+00:00,2026-01-01 00:24:30+00:00,0.5975697149561585,0.02618332332585445,0.5470112002920963,0.6410121158472291,0.6060180669566332,0.041007110812641856,-0.0010659002943824258,0.3577751306531708,0.42589881397399,0.07914956597879658,0.3600123599959697,0.6900448622082243,0.40000244148034914,0.039990081484379436,0.00020482853362146413,0.18765445353908328,-1.010236945709298,0.026978457339697882,-1.0299923703743914,-0.9099594103839521,-1.0199896237085213,0.010002746665869866,-0.0001437337952690699,1.0213065236364813,-0.05714852595598883,0.007939779235006945,-0.0700115970335966,-0.010026245918148746,-0.06002838221380901,0.0,-0.00010003166885553735,0.003328994113242975,77.40033163464682,3.1687079898206356,73.00006103718604,82.00010681497086,77.00070192589419,6.000030518523218,-0.2914470400498138,6000.852047478061,95.70000915584488,0.5259750754717015,95.0000305187994,96.99996948178656,96.00000000029299,0.9999694814935793,-0.004671715041462998,9158.768402208816,32.94247058775633,0.08181159553631222,32.89997253331135,33.09996337775833,32.89997253331135,0.0,0.0016431502807940106,1085.2130615623553,non_stress
noneeg_S01,noneeg,2026-01-01 00:24:15+00:00,2026-01-01 00:24:45+00:00,0.5511818994711416,0.02852691891912645,0.5060040894794544,0.6070235297698278,0.5470112002920963,0.051732047486717336,-0.0012289008424705588,0.30461527140763406,0.5098989455849764,0.09687411289436715,0.38003280739729817,0.6500039674055673,0.4900436414680497,0.2300318918421672,0.003968002018853292,0.2693815284577412,-0.98472994171133,0.0340304776066199,-1.0199896237085213,-0.929964903715692,-0.9999841303767815,0.08002197332695948,0.0013787189497260954,0.9708511315089335,-0.055141663106170524,0.006131474176031214,-0.0700115970335966,-0.03003570665608508,-0.06002838221380901,0.010026245918148748,0.00014157644927400038,0.003078197985685745,75.0002263457836,1.154724341046079,73.00006103718604,77.00070192589419,75.00038148154012,0.999694814907528,0.05383752604142187,5626.3673402225795,95.533347575596,0.4988724262638613,95.0000305187994,96.00000000029299,96.00000000029299,0.9999694814935793,0.007118803872699436,9126.869372697316,33.00496772664602,0.1047568384453025,32.89997253331135,33.2999542222053,33.09996337775833,0.19999084444697957,0.00116731646196202,1089.3388686321462,non_stress
noneeg_S01,noneeg,2026-01-01 00:24:30+00:00,2026-01-01 00:25:00+00:00,0.5068853480627837,0.0237419707900703,0.470004577775664,0.5490221259184854,0.5040128788101867,0.03873989074367368,-0.0010223189628909765,0.257496437257726,0.6015261562694126,0.05467927332095478,0.4700231940667212,0.6600141911062316,0.6200241096218522,0.06996993926809458,0.0008621713449472571,0.3648235396071617,-0.9525961180472227,0.024180165985271944,-0.9999841303767815,-0.919962157049822,-0.9399676503815618,0.040010986663479686,0.0003157219499670293,0.9080240445457133,-0.050256019775991055,0.005696985092341674,-0.06002838221380901,-0.020009460737936337,-0.05000213629566026,0.0,7.5412352922563e-05,0.002558123162867168,75.93370921981551,0.8138880786981663,75.00038148154012,77.00070192589419,76.00007629644765,2.000320444354074,0.06364224390427409,5766.590609684142,95.26668904719773,0.44220314292272533,95.0000305187994,96.00000000029299,95.0000305187994,0.7499771111201881,-0.028475215490809728,9075.937585635065,33.047465781091,0.09350374045810235,32.89997253331135,33.2999542222053,33.09996337775833,0.19999084444697957,0.0006492904818542338,1092.1437375018602,non_stress
noneeg_S01,noneeg,2026-01-01 00:24:45+00:00,2026-01-01 00:25:15+00:00,0.4693451124599511,0.019981946910712655,0.4370017395543359,0.502021668140919,0.47051716666082205,0.03125806451607871,-0.0008620510575937352,0.2206841127923867,0.5984036778612613,0.03050507215319592,0.5700238044368086,0.6600141911062316,0.5800340281374727,0.022472190008216986,-0.0010408422162144612,0.3590175211049561,-0.9552218390470134,0.015892645825583317,-0.9799786370450416,-0.919962157049822,-0.9599731437133018,0.012503433332337388,-0.00047692420811953684,0.912701337983696,-0.04925285729544667,0.004112435343242702,-0.05000213629566026,-0.020009460737936337,-0.05000213629566026,0.0,-1.8739105246233954e-05,0.0024427560762179867,77.26703899265912,2.159308156996466,75.00038148154012,83.00073244441741,77.00070192589419,1.0006256294465459,0.17218474473105294,5974.857926409979,95.06669515089901,0.24943621313193065,95.0000305187994,96.00000000029299,95.0000305187994,0.0,0.002669551452260889,9037.73874533838,33.07746440775806,0.06319323032153495,32.89997253331135,33.09996337775833,33.09996337775833,0.0,0.0005086499442687687,1094.122645030859,non_stress
noneeg_S01,noneeg,2026-01-01 00:25:00+00:00,2026-01-01 00:25:30+00:00,0.43819055146876007,0.016208258574749314,0.4140140995507108,0.4710297555459801,0.4370017395543359,0.029266853846810992,-0.000697074854519803,0.19227366704252202,0.6044060010827892,0.040919632081297515,0.5700238044368086,0.6900448622082243,0.5800340281374727,0.07998016296875887,0.001324143736898707,0.36698103043455726,-0.9512207403806656,0.021123032497834513,-0.9699758903791716,-0.9099594103839521,-0.9599731437133018,0.05001373332934966,0.0006757598661752644,0.9052670794322462,-0.05000267418438977,0.0015818903336012192,-0.06002838221380901,-0.040018921475872674,-0.05000213629566026,0.0,-1.1023566770742774e-05,0.0025027698026177806,78.76698456798734,2.3761897493051793,76.00007629644765,83.00073244441741,79.00009155570925,5.00033570361569,0.0856620647766305,6209.884135658257,95.06669515089901,0.24943621313193065,95.0000305187994,96.00000000029299,95.0000305187994,0.0,-0.010678205809055553,9037.73874533838,33.09496360664716,0.031223560581734828,32.89997253331135,33.09996337775833,33.09996337775833,0.0,0.00022971287805675054,1095.2775910360353,non_stress
noneeg_S01,noneeg,2026-01-01 00:25:15+00:00,2026-01-01 00:25:45+00:00,0.41276762138670636,0.013376578058140822,0.3900012817767695,0.4370017395543359,0.41251576280947966,0.022987640003625187,-0.0005746004203532693,0.17055604210578484,0.6466483828998181,0.037478790146793554,0.5700238044368086,0.6900448622082243,0.6600141911062316,0.010010223700664178,0.001093202803606868,0.41955879081781705,-0.9298398693823685,0.01927273551844877,-0.9699758903791716,-0.9099594103839521,-0.919962157049822,0.010002746665869977,0.0005593425262876815,0.8649736210273844,-0.050628776665544564,0.0024269677166231366,-0.06002838221380901,-0.05000213629566026,-0.05000213629566026,0.0,-1.3984098268397992e-05,0.00256916319894712,78.26704407907967,1.9137816405852452,76.00007629644765,82.00010681497086,78.00039674080172,3.7504844813465326,-0.18510059888628622,6129.392749044441,95.00003051879943,2.842170943040401e-14,95.0000305187994,95.0000305187994,95.0000305187994,0.0,-3.236404271844784e-15,9025.005798572818,33.104963148869516,0.03122356058173371,33.09996337775833,33.2999542222053,33.09996337775833,0.0,0.0002953451289300933,1095.9395599987433,non_stress
noneeg_S01,noneeg,2026-01-01 00:25:30+00:00,2026-01-01 00:26:00+00:00,0.39123494521864505,0.011442176579827398,0.3700103152556066,0.4110174260682485,0.39051387066192755,0.01798004089477373,-0.0004913493231714932,0.15319570576512015,0.668898264640571,0.00707719098959986,0.6600141911062316,0.6800346385075601,0.6700244148068958,0.010010223700664178,0.00020449859247840608,0.44747497507147055,-0.9194620197165285,0.0035009613330544654,-0.929964903715692,-0.9099594103839521,-0.919962157049822,0.0,6.799804343887158e-05,0.8454226624314533,-0.05125541703542885,0.003315869160374756,-0.06002838221380901,-0.05000213629566026,-0.05000213629566026,0.0,-1.4806692284186122e-05,0.0026381127637644546,75.83370871117346,1.7717340497401428,72.00036622227852,80.0007171851558,76.00007629644765,2.000320444354074,-0.18086627281423204,5753.8904184341145,94.86670125460027,0.4988724262638612,94.00006103730583,96.00000000029299,95.0000305187994,0.0,0.004449252420436982,8999.939880627262,33.107463034425095,0.0379949709794427,33.09996337775833,33.2999542222053,33.09996337775833,0.0,-2.344008959700146e-06,1096.1055521936437,non_stress
